,time,aX,aY,aZ,gX,gY,gZ
0,947.0,-0.95,-0.49,0.13,96.07,-62.5,-0.18
1,956.0,-0.95,-0.5,0.23,94.54,-93.75,-0.18
2,961.0,-0.94,-0.52,0.26,93.38,-109.38,-0.18
3,969.0,-0.89,-0.5,0.26,89.42,-140.62,-0.18
4,977.0,-0.84,-0.44,0.19,85.39,-156.25,-0.18
5,984.0,-0.86,-0.35,0.1,76.6,-171.88,-0.18
6,992.0,-0.81,-0.31,-0.03,65.86,-187.5,-0.18
7,1000.0,-0.71,-0.33,-0.23,59.33,-187.5,-0.18
8,1008.0,-0.53,-0.32,-0.47,47.55,-187.5,-0.18
9,1030.0,-0.01,-0.2,-1.12,-18.07,-140.62,-0.24
10,1037.0,0.09,-0.24,-1.29,-43.7,-93.75,-0.24
11,1044.0,0.15,-0.48,-1.48,-51.15,-46.88,-0.24
12,1051.0,0.07,-0.55,-1.58,-47.24,0.0,-0.24
13,1059.0,-0.17,-0.52,-1.58,-38.88,46.88,-0.24
14,1067.0,-0.42,-0.48,-1.5,-30.4,93.75,-0.24
15,1083.0,-0.82,-0.45,-1.27,-32.17,156.25,-0.24
16,1089.0,-0.89,-0.54,-1.15,-39.61,171.88,-0.24
17,1097.0,-0.94,-0.67,-1.02,-45.53,171.88,-0.24
18,1104.0,-0.96,-0.79,-0.91,-45.47,187.5,-0.24
19,1112.0,-0.96,-0.89,-0.78,-38.82,187.5,-0.24
20,1119.0,-0.97,-0.94,-0.69,-22.95,187.5,-0.24
21,1127.0,-1.01,-0.93,-0.6,1.71,187.5,-0.24
22,1134.0,-1.04,-0.86,-0.53,31.13,187.5,-0.24
23,1142.0,-1.05,-0.69,-0.5,61.83,171.88,-0.24
24,1149.0,-1.05,-0.52,-0.49,83.19,171.88,-0.24
25,1159.0,-1.0,-0.28,-0.54,95.03,171.88,-0.24
26,1165.0,-0.98,-0.19,-0.56,91.31,171.88,-0.24
27,1171.0,-0.94,-0.09,-0.59,74.46,187.5,-0.24
28,1186.0,-0.87,-0.12,-0.51,30.58,187.5,-0.24
29,1194.0,-0.83,-0.17,-0.43,13.92,171.88,-0.24
30,1202.0,-0.79,-0.21,-0.33,4.15,171.88,-0.24
31,1209.0,-0.76,-0.21,-0.2,-2.08,171.88,-0.24
32,1216.0,-0.75,-0.19,-0.12,-4.76,156.25,-0.24
33,1224.0,-0.73,-0.16,-0.03,-6.29,156.25,-0.24
34,1232.0,-0.71,-0.13,0.02,-6.65,140.62,-0.24
35,1240.0,-0.68,-0.08,0.11,-6.16,125.0,-0.24
36,1247.0,-0.66,-0.02,0.14,-4.64,109.38,-0.24
37,1254.0,-0.63,0.05,0.16,-0.73,109.38,-0.24
38,1261.0,-0.62,0.11,0.15,5.07,93.75,-0.24
39,1277.0,-0.59,0.2,0.17,15.26,62.5,-0.24
40,1284.0,-0.56,0.19,0.14,27.59,46.88,-0.31
41,1292.0,-0.54,0.08,0.06,44.86,31.25,-0.31
42,1299.0,-0.5,-0.04,0.0,57.07,0.0,-0.31
43,1307.0,-0.44,-0.14,-0.03,77.82,-15.62,-0.31
44,1314.0,-0.4,-0.19,-0.05,101.38,-31.25,-0.31
45,1322.0,-0.39,-0.23,-0.06,119.63,-46.88,-0.31
46,1330.0,-0.41,-0.24,-0.06,127.69,-62.5,-0.31
47,1336.0,-0.45,-0.21,-0.08,125.67,-93.75,-0.31
48,1344.0,-0.48,-0.17,-0.07,116.82,-109.38,-0.31
49,1352.0,-0.5,-0.1,-0.05,98.51,-125.0,-0.31
50,1359.0,-0.51,-0.04,-0.06,80.63,-140.62,-0.31
51,1367.0,-0.54,0.02,-0.09,63.17,-156.25,-0.31
52,1375.0,-0.55,0.04,-0.1,46.69,-171.88,-0.31
53,1381.0,-0.57,0.06,-0.09,37.6,-187.5,-0.31
54,1389.0,-0.62,0.07,-0.13,35.28,-203.12,-0.31
55,1397.0,-0.67,0.08,-0.17,37.78,-218.75,-0.31
56,1404.0,-0.7,0.05,-0.2,42.24,-234.38,-0.31
57,1412.0,-0.73,-0.01,-0.26,50.42,-234.38,-0.31
58,1419.0,-0.8,-0.17,-0.42,63.78,-250.0,-0.31
59,1426.0,-0.85,-0.41,-0.74,81.18,-250.0,-0.31
60,1434.0,-0.82,-0.69,-1.05,94.42,-250.0,-0.31
61,1442.0,-0.79,-0.88,-1.29,102.48,-234.38,-0.31
62,1450.0,-0.9,-0.93,-1.42,113.89,-234.38,-0.31
63,1457.0,-1.03,-0.85,-1.51,123.41,-218.75,-0.31
64,1464.0,-1.2,-0.68,-1.5,125.79,-218.75,-0.31
65,1472.0,-1.47,-0.61,-1.24,128.05,-218.75,-0.31
66,1481.0,-1.44,-0.66,-0.92,133.06,-281.25,-0.31
67,1495.0,-0.0,-0.65,-0.71,140.38,-375.0,-0.31
68,1502.0,1.06,-0.28,-0.8,47.97,-343.75,-0.31
69,1510.0,1.43,-0.06,-1.08,-47.91,-250.0,-0.31
70,1517.0,1.41,-0.21,-1.57,-115.23,-171.88,-0.31
71,1524.0,1.31,-0.85,-2.04,-132.2,-93.75,-0.31
72,1532.0,1.26,-1.45,-2.27,-83.37,0.0,-0.31
73,1540.0,0.59,-0.97,-2.16,-28.2,78.12,-0.37
74,1554.0,-0.37,0.01,-1.61,-40.22,156.25,-0.37
75,1562.0,-0.34,-0.05,-1.38,-72.14,187.5,-0.37
76,1569.0,-0.45,-0.33,-1.23,-97.47,218.75,-0.37
77,1577.0,-0.66,-0.6,-1.13,-120.3,218.75,-0.37
78,1584.0,-0.85,-0.95,-1.04,-116.7,203.12,-0.37
79,1591.0,-0.86,-1.22,-0.97,-81.12,187.5,-0.37
80,1599.0,-0.8,-1.31,-1.01,-29.42,171.88,-0.37
81,1607.0,-0.74,-1.21,-1.11,13.92,156.25,-0.37
82,1615.0,-0.75,-0.98,-1.18,42.91,156.25,-0.37
83,1622.0,-0.76,-0.68,-1.23,52.19,156.25,-0.37
84,1629.0,-0.75,-0.48,-1.27,45.59,171.88,-0.37
85,1636.0,-0.73,-0.32,-1.25,24.29,171.88,-0.37
86,1661.0,-0.62,-0.35,-1.05,-56.27,203.12,-0.37
87,1674.0,-0.47,-0.48,-0.8,-75.07,203.12,-0.37
88,1682.0,-0.43,-0.5,-0.64,-77.51,203.12,-0.37
89,1689.0,-0.42,-0.47,-0.49,-77.39,203.12,-0.37
90,1698.0,-0.43,-0.39,-0.34,-76.35,187.5,-0.37
91,1704.0,-0.44,-0.31,-0.25,-76.54,187.5,-0.37
92,1712.0,-0.43,-0.21,-0.17,-76.11,171.88,-0.37
93,1719.0,-0.43,-0.13,-0.11,-76.78,171.88,-0.37
94,1735.0,-0.46,0.04,0.02,-74.89,156.25,-0.37
95,1742.0,-0.48,0.09,0.08,-72.27,140.62,-0.37
96,1751.0,-0.5,0.11,0.14,-64.76,125.0,-0.37
97,1757.0,-0.51,0.11,0.18,-58.41,109.38,-0.37
98,1767.0,-0.51,0.12,0.22,-44.19,93.75,-0.37
99,1773.0,-0.54,0.12,0.21,-29.48,78.12,-0.37
100,1779.0,-0.55,0.12,0.13,-22.4,62.5,-0.37
101,1787.0,-0.5,0.1,0.03,-19.35,31.25,-0.37
102,1802.0,-0.45,0.04,-0.03,-0.73,15.62,-0.43
103,1809.0,-0.49,0.01,-0.05,13.43,-15.62,-0.43
104,1817.0,-0.5,0.03,-0.07,20.08,-31.25,-0.43
105,1825.0,-0.51,0.07,-0.09,15.99,-46.88,-0.43
106,1832.0,-0.5,0.11,-0.07,4.88,-78.12,-0.43
107,1839.0,-0.51,0.11,-0.07,-10.86,-93.75,-0.43
108,1846.0,-0.5,0.09,-0.05,-28.99,-109.38,-0.43
109,1855.0,-0.5,0.08,-0.11,-42.24,-140.62,-0.43
110,1862.0,-0.5,0.08,-0.17,-47.49,-156.25,-0.43
111,1869.0,-0.51,0.08,-0.18,-48.46,-156.25,-0.43
112,1877.0,-0.57,0.1,-0.19,-41.93,-171.88,-0.43
113,1884.0,-0.66,0.1,-0.25,-29.72,-187.5,-0.43
114,1892.0,-0.78,0.02,-0.43,-12.45,-187.5,-0.43
115,1899.0,-0.88,-0.13,-0.64,7.08,-187.5,-0.43
116,1907.0,-0.95,-0.36,-0.96,27.95,-203.12,-0.43
117,1915.0,-1.01,-0.57,-1.31,47.73,-187.5,-0.43
118,1921.0,-1.08,-0.72,-1.64,69.09,-171.88,-0.43
119,1929.0,-1.21,-0.82,-1.86,90.21,-156.25,-0.43
120,1937.0,-1.47,-0.72,-1.93,109.99,-140.62,-0.43
121,1944.0,-1.82,-0.39,-1.7,119.26,-140.62,-0.43
122,1952.0,-2.17,0.11,-1.14,122.38,-187.5,-0.43
123,1959.0,-1.49,0.07,-0.68,120.24,-234.38,-0.43
124,1966.0,-0.1,-0.46,-0.66,87.71,-265.62,-0.43
125,1982.0,1.37,-0.78,-1.56,-80.51,-140.62,-0.43
126,1989.0,1.36,-0.74,-1.76,-121.4,-15.62,-0.43
127,1997.0,0.6,-0.76,-1.82,-135.5,93.75,-0.43
128,2004.0,-0.41,-0.7,-1.75,-123.23,171.88,-0.43
129,2011.0,-1.06,-0.55,-1.78,-103.33,218.75,-0.43
130,2019.0,-1.3,-0.42,-1.86,-104.49,234.38,-0.43
131,2027.0,-1.22,-0.6,-1.85,-114.32,250.0,-0.43
132,2035.0,-1.2,-0.84,-1.7,-112.43,281.25,-0.43
133,2041.0,-1.27,-0.98,-1.55,-86.3,281.25,-0.43
134,2049.0,-1.19,-1.06,-1.37,-46.45,265.62,-0.49
135,2056.0,-1.02,-0.96,-1.17,-6.29,265.62,-0.49
136,2065.0,-0.88,-0.71,-0.94,22.89,265.62,-0.49
137,2072.0,-0.8,-0.46,-0.74,33.69,265.62,-0.49
138,2079.0,-0.78,-0.21,-0.55,33.57,281.25,-0.49
139,2087.0,-0.78,0.01,-0.34,23.86,281.25,-0.49
140,2094.0,-0.79,0.14,-0.16,10.62,281.25,-0.49
141,2102.0,-0.79,0.24,0.09,-2.14,281.25,-0.49
142,2109.0,-0.77,0.29,0.28,-9.83,265.62,-0.49
143,2117.0,-0.73,0.34,0.45,-12.39,250.0,-0.49
144,2125.0,-0.67,0.38,0.55,-12.82,218.75,-0.49
145,2131.0,-0.63,0.42,0.62,-10.8,203.12,-0.49
146,2139.0,-0.59,0.41,0.53,1.16,171.88,-0.49
147,2149.0,-0.49,0.29,0.08,13.85,140.62,-0.49
148,2162.0,-0.12,0.21,-0.11,39.61,78.12,-0.49
149,2169.0,-0.01,0.12,-0.15,74.71,78.12,-0.49
150,2176.0,-0.01,0.07,-0.06,95.52,46.88,-0.49
151,2192.0,-0.2,0.25,0.35,80.2,-15.62,-0.49
152,2201.0,-0.3,0.34,0.57,62.99,-46.88,-0.49
153,2207.0,-0.36,0.33,0.62,55.79,-78.12,-0.49
154,2214.0,-0.39,0.28,0.62,51.39,-125.0,-0.49
155,2221.0,-0.38,0.23,0.59,49.87,-156.25,-0.49
156,2237.0,-0.34,0.06,0.4,52.86,-218.75,-0.49
157,2245.0,-0.35,-0.01,0.29,53.96,-234.38,-0.49
158,2251.0,-0.39,-0.12,0.11,58.78,-250.0,-0.49
159,2259.0,-0.48,-0.33,-0.21,67.02,-250.0,-0.49
160,2267.0,-0.57,-0.53,-0.56,78.25,-250.0,-0.49
161,2275.0,-0.7,-0.82,-0.95,103.88,-250.0,-0.49
162,2282.0,-0.85,-1.0,-1.15,124.15,-234.38,-0.49
163,2289.0,-1.11,-1.08,-1.34,141.48,-218.75,-0.49
164,2297.0,-1.5,-0.9,-1.42,151.73,-218.75,-0.49
165,2304.0,-1.79,-0.45,-1.19,152.4,-218.75,-0.55
166,2312.0,-1.92,-0.01,-0.85,159.97,-250.0,-0.55
167,2319.0,-1.55,0.04,-0.45,148.93,-296.88,-0.55
168,2327.0,-0.39,-0.37,-0.35,145.81,-312.5,-0.55
169,2334.0,0.57,-0.88,-0.46,90.94,-312.5,-0.55
170,2341.0,1.18,-0.73,-1.41,9.83,-234.38,-0.55
171,2349.0,1.36,-0.32,-1.94,-70.5,-140.62,-0.55
172,2357.0,1.04,-0.42,-2.04,-136.11,-31.25,-0.55
173,2364.0,0.18,-0.7,-1.78,-159.0,62.5,-0.55
174,2372.0,-0.58,-0.7,-1.66,-158.63,125.0,-0.55
175,2379.0,-1.1,-0.57,-1.54,-166.56,156.25,-0.55
176,2386.0,-1.18,-0.54,-1.45,-181.52,171.88,-0.55
177,2394.0,-1.25,-0.63,-1.33,-191.77,187.5,-0.55
178,2402.0,-1.38,-0.74,-1.19,-188.84,203.12,-0.55
179,2417.0,-1.39,-0.85,-0.87,-121.28,171.88,-0.55
180,2424.0,-1.16,-0.83,-0.76,-80.87,156.25,-0.55
181,2431.0,-1.02,-0.67,-0.64,-51.76,140.62,-0.55
182,2440.0,-0.98,-0.44,-0.57,-38.88,140.62,-0.55
183,2447.0,-0.97,-0.29,-0.5,-39.73,140.62,-0.55
184,2455.0,-0.97,-0.18,-0.45,-46.81,140.62,-0.55
185,2462.0,-0.97,-0.16,-0.41,-53.59,140.62,-0.55
186,2469.0,-0.97,-0.2,-0.37,-53.65,140.62,-0.55
187,2477.0,-0.92,-0.22,-0.36,-46.94,125.0,-0.55
188,2484.0,-0.87,-0.2,-0.35,-35.34,125.0,-0.55
189,2492.0,-0.81,-0.13,-0.29,-23.01,109.38,-0.55
190,2500.0,-0.75,-0.01,-0.23,-13.06,109.38,-0.55
191,2506.0,-0.68,0.16,-0.18,-7.87,93.75,-0.55
192,2514.0,-0.64,0.33,-0.14,-7.02,93.75,-0.55
193,2522.0,-0.62,0.43,-0.18,-11.9,78.12,-0.55
194,2529.0,-0.59,0.46,-0.22,-19.71,62.5,-0.55
195,2537.0,-0.51,0.42,-0.21,-27.89,46.88,-0.55
196,2544.0,-0.46,0.35,-0.19,-24.23,31.25,-0.55
197,2551.0,-0.42,0.24,-0.19,-12.15,15.62,-0.55
198,2559.0,-0.4,0.14,-0.19,2.62,0.0,-0.61
199,2567.0,-0.41,0.06,-0.16,19.65,-15.62,-0.61
200,2575.0,-0.45,0.01,-0.11,36.68,-46.88,-0.61
201,2582.0,-0.52,-0.01,-0.07,50.42,-62.5,-0.61
202,2589.0,-0.57,0.04,-0.07,55.66,-78.12,-0.61
203,2596.0,-0.61,0.09,-0.11,54.81,-109.38,-0.61
204,2604.0,-0.65,0.11,-0.17,48.77,-125.0,-0.61
205,2612.0,-0.67,0.13,-0.26,39.0,-140.62,-0.61
206,2620.0,-0.69,0.13,-0.41,28.32,-156.25,-0.61
207,2626.0,-0.73,0.09,-0.52,17.4,-156.25,-0.61
208,2634.0,-0.79,0.0,-0.6,11.23,-156.25,-0.61
209,2641.0,-0.87,-0.15,-0.75,12.76,-156.25,-0.61
210,2650.0,-0.94,-0.41,-1.03,21.12,-156.25,-0.61
211,2657.0,-0.93,-0.67,-1.21,31.92,-156.25,-0.61
212,2664.0,-0.95,-0.89,-1.29,49.5,-140.62,-0.61
213,2672.0,-1.08,-0.95,-1.3,76.78,-125.0,-0.61
214,2679.0,-1.28,-0.86,-1.41,104.43,-109.38,-0.61
215,2687.0,-1.45,-0.78,-1.31,136.29,-109.38,-0.61
216,2694.0,-1.65,-0.91,-0.96,184.2,-140.62,-0.61
217,2702.0,-1.33,-1.23,-0.65,216.86,-203.12,-0.61
218,2709.0,-0.35,-1.05,-0.54,221.19,-250.0,-0.61
219,2716.0,0.61,-0.84,-0.61,120.36,-250.0,-0.61
220,2724.0,1.3,-0.4,-1.12,-2.62,-156.25,-0.61
221,2732.0,1.07,-0.22,-1.48,-89.23,-78.12,-0.61
222,2739.0,0.86,-0.47,-1.51,-140.56,0.0,-0.61
223,2748.0,0.12,-0.44,-1.34,-151.98,93.75,-0.61
224,2754.0,-0.46,-0.31,-1.26,-149.48,125.0,-0.61
225,2761.0,-0.63,-0.28,-1.21,-157.04,156.25,-0.61
226,2769.0,-0.69,-0.38,-1.16,-177.55,203.12,-0.61
227,2777.0,-0.81,-0.53,-1.1,-193.91,218.75,-0.61
228,2785.0,-1.06,-0.73,-1.0,-188.72,234.38,-0.61
229,2791.0,-1.27,-0.89,-0.87,-158.08,218.75,-0.61
230,2799.0,-1.34,-0.99,-0.84,-110.29,187.5,-0.61
231,2806.0,-1.24,-0.94,-0.8,-67.26,171.88,-0.61
232,2814.0,-1.08,-0.7,-0.7,-32.41,171.88,-0.61
233,2822.0,-0.95,-0.46,-0.6,-15.5,171.88,-0.67
234,2830.0,-0.85,-0.22,-0.47,-15.2,171.88,-0.67
235,2836.0,-0.85,-0.08,-0.38,-21.85,171.88,-0.67
236,2844.0,-0.85,-0.02,-0.27,-30.94,171.88,-0.67
237,2852.0,-0.86,0.01,-0.2,-36.87,171.88,-0.67
238,2859.0,-0.87,0.04,-0.15,-35.71,171.88,-0.67
239,2867.0,-0.87,0.07,-0.11,-31.25,156.25,-0.67
240,2874.0,-0.86,0.14,-0.05,-26.98,140.62,-0.67
241,2882.0,-0.84,0.26,0.0,-23.25,125.0,-0.67
242,2889.0,-0.81,0.4,-0.02,-23.74,109.38,-0.67
243,2897.0,-0.75,0.44,-0.1,-24.6,93.75,-0.67
244,2904.0,-0.67,0.42,-0.18,-28.32,78.12,-0.67
245,2912.0,-0.59,0.38,-0.19,-21.42,78.12,-0.67
246,2919.0,-0.54,0.29,-0.19,-2.56,62.5,-0.67
247,2926.0,-0.53,0.24,-0.18,21.3,46.88,-0.67
248,2934.0,-0.53,0.24,-0.12,41.5,31.25,-0.67
249,2942.0,-0.54,0.25,-0.06,55.36,15.62,-0.67
250,2949.0,-0.57,0.23,-0.0,62.5,-15.62,-0.67
251,2957.0,-0.61,0.2,0.06,68.24,-31.25,-0.67
252,2964.0,-0.66,0.16,0.08,75.56,-46.88,-0.67
253,2971.0,-0.7,0.12,0.04,83.44,-78.12,-0.67
254,2979.0,-0.71,0.1,-0.0,88.38,-93.75,-0.67
255,2987.0,-0.72,0.11,-0.02,91.31,-109.38,-0.67
256,3001.0,-0.8,0.11,-0.13,96.74,-140.62,-0.67
257,3009.0,-0.82,0.06,-0.16,94.06,-156.25,-0.67
258,3016.0,-0.84,-0.0,-0.2,97.66,-156.25,-0.67
259,3024.0,-0.92,-0.14,-0.35,105.47,-171.88,-0.67
260,3032.0,-0.99,-0.32,-0.6,114.26,-187.5,-0.67
261,3040.0,-0.99,-0.67,-0.96,127.62,-187.5,-0.67
262,3047.0,-0.97,-1.04,-1.21,142.15,-171.88,-0.67
263,3055.0,-1.06,-1.25,-1.27,164.92,-171.88,-0.67
264,3062.0,-1.28,-1.24,-1.28,193.18,-171.88,-0.67
265,3069.0,-1.61,-1.14,-1.22,221.98,-187.5,-0.67
266,3077.0,-1.6,-0.78,-1.05,241.7,-218.75,-0.73
267,3084.0,-1.17,-0.24,-0.92,256.35,-265.62,-0.73
268,3099.0,0.93,-0.35,-1.13,131.35,-265.62,-0.73
269,3107.0,1.21,-0.37,-1.3,29.36,-203.12,-0.73
270,3114.0,1.16,-0.41,-1.89,-52.19,-109.38,-0.73
271,3122.0,1.11,-0.43,-2.13,-102.05,-31.25,-0.73
272,3130.0,0.42,-0.44,-2.0,-110.29,62.5,-0.73
273,3136.0,-0.21,-0.27,-1.88,-110.66,109.38,-0.73
274,3144.0,-0.57,-0.13,-1.66,-118.47,140.62,-0.73
275,3152.0,-0.58,-0.22,-1.49,-126.4,171.88,-0.73
276,3166.0,-0.63,-0.79,-1.13,-125.73,234.38,-0.73
277,3174.0,-0.75,-0.92,-1.03,-105.29,250.0,-0.73
278,3181.0,-0.84,-0.98,-0.97,-71.59,250.0,-0.73
279,3189.0,-0.8,-0.95,-0.85,-31.31,234.38,-0.73
280,3197.0,-0.8,-0.76,-0.74,1.83,234.38,-0.73
281,3205.0,-0.81,-0.48,-0.63,22.71,218.75,-0.73
282,3211.0,-0.8,-0.25,-0.52,23.99,218.75,-0.73
283,3219.0,-0.8,-0.03,-0.42,13.12,218.75,-0.73
284,3226.0,-0.82,0.09,-0.33,-5.25,234.38,-0.73
285,3235.0,-0.82,0.12,-0.25,-25.02,234.38,-0.73
286,3242.0,-0.8,0.1,-0.18,-41.87,218.75,-0.73
287,3249.0,-0.77,0.07,-0.14,-54.5,218.75,-0.73
288,3264.0,-0.71,0.04,-0.07,-68.66,203.12,-0.73
289,3272.0,-0.68,0.06,-0.0,-68.97,203.12,-0.73
290,3279.0,-0.66,0.11,0.1,-65.43,187.5,-0.73
291,3287.0,-0.63,0.17,0.21,-59.88,171.88,-0.73
292,3295.0,-0.6,0.24,0.3,-52.8,156.25,-0.73
293,3301.0,-0.59,0.32,0.38,-48.71,140.62,-0.73
294,3309.0,-0.59,0.41,0.47,-45.17,125.0,-0.73
295,3325.0,-0.63,0.43,0.5,-37.6,93.75,-0.73
296,3332.0,-0.64,0.31,0.43,-27.59,62.5,-0.79
297,3347.0,-0.57,0.06,0.18,7.69,31.25,-0.79
298,3354.0,-0.51,-0.0,0.02,23.8,0.0,-0.79
299,3364.0,-0.44,-0.01,-0.19,40.16,-15.62,-0.79
300,3371.0,-0.4,0.06,-0.31,46.63,-31.25,-0.79
301,3376.0,-0.4,0.11,-0.33,49.19,-46.88,-0.79
302,3384.0,-0.46,0.2,-0.31,50.29,-46.88,-0.79
303,3391.0,-0.57,0.31,-0.23,48.77,-62.5,-0.79
304,3399.0,-0.71,0.4,-0.11,43.21,-78.12,-0.79
305,3407.0,-0.79,0.44,-0.03,34.61,-93.75,-0.79
306,3415.0,-0.84,0.44,0.06,30.52,-125.0,-0.79
307,3421.0,-0.87,0.4,0.06,30.94,-140.62,-0.79
308,3429.0,-0.86,0.33,0.03,33.69,-156.25,-0.79
309,3436.0,-0.84,0.24,-0.03,41.81,-171.88,-0.79
310,3445.0,-0.83,0.13,-0.11,51.27,-187.5,-0.79
311,3452.0,-0.86,0.06,-0.11,59.08,-187.5,-0.79
312,3458.0,-0.95,0.04,-0.14,68.54,-203.12,-0.79
313,3467.0,-1.06,0.01,-0.23,75.68,-203.12,-0.79
314,3474.0,-1.13,-0.06,-0.41,80.02,-218.75,-0.79
315,3482.0,-1.12,-0.23,-0.7,82.52,-234.38,-0.79
316,3489.0,-1.04,-0.44,-1.01,90.76,-234.38,-0.79
317,3497.0,-0.93,-0.81,-1.43,113.22,-218.75,-0.79
318,3504.0,-0.9,-1.17,-1.76,138.61,-187.5,-0.79
319,3511.0,-1.04,-1.39,-1.99,164.12,-171.88,-0.79
320,3519.0,-1.38,-1.28,-1.88,177.25,-156.25,-0.79
321,3527.0,-1.93,-0.69,-1.42,198.73,-156.25,-0.79
322,3534.0,-2.04,-0.35,-0.93,233.22,-218.75,-0.79
323,3541.0,-0.82,-0.75,-0.52,251.71,-296.88,-0.79
324,3549.0,0.62,-1.1,-0.55,221.37,-328.12,-0.79
325,3556.0,1.99,-0.82,-1.21,104.06,-234.38,-0.79
326,3564.0,2.04,-0.24,-1.94,4.27,-93.75,-0.79
327,3572.0,1.33,-0.19,-2.08,-75.62,0.0,-0.79
328,3580.0,0.64,-0.13,-1.99,-131.16,109.38,-0.79
329,3586.0,-0.19,-0.02,-1.88,-166.5,171.88,-0.85
330,3594.0,-0.85,-0.08,-1.74,-191.77,203.12,-0.85
331,3601.0,-0.99,-0.3,-1.61,-213.56,218.75,-0.85
332,3610.0,-0.95,-0.58,-1.46,-234.01,234.38,-0.85
333,3617.0,-1.06,-0.83,-1.34,-231.69,265.62,-0.85
334,3625.0,-1.25,-0.97,-1.21,-192.32,250.0,-0.85
335,3631.0,-1.23,-1.03,-1.03,-132.75,218.75,-0.85
336,3639.0,-0.98,-0.99,-0.91,-76.17,203.12,-0.85
337,3647.0,-0.78,-0.8,-0.77,-38.02,203.12,-0.85
338,3654.0,-0.73,-0.52,-0.64,-18.92,203.12,-0.85
339,3662.0,-0.73,-0.21,-0.5,-18.74,203.12,-0.85
340,3669.0,-0.74,-0.02,-0.4,-31.49,203.12,-0.85
341,3676.0,-0.75,0.12,-0.27,-48.16,203.12,-0.85
342,3684.0,-0.76,0.18,-0.17,-63.17,218.75,-0.85
343,3692.0,-0.76,0.21,-0.07,-74.89,203.12,-0.85
344,3702.0,-0.76,0.22,0.04,-85.45,203.12,-0.85
345,3714.0,-0.74,0.24,0.12,-94.06,171.88,-0.85
346,3721.0,-0.71,0.27,0.17,-97.17,171.88,-0.85
347,3729.0,-0.7,0.29,0.23,-95.21,156.25,-0.85
348,3737.0,-0.7,0.31,0.3,-87.46,140.62,-0.85
349,3744.0,-0.71,0.31,0.34,-75.13,125.0,-0.85
350,3759.0,-0.72,0.32,0.32,-50.6,78.12,-0.85
351,3774.0,-0.69,0.32,0.18,-31.86,46.88,-0.85
352,3785.0,-0.57,0.17,-0.04,-20.26,31.25,-0.85
353,3789.0,-0.5,0.06,-0.1,-15.69,15.62,-0.85
354,3797.0,-0.42,-0.01,-0.18,-6.9,0.0,-0.85
355,3804.0,-0.43,0.01,-0.24,5.25,-15.62,-0.85
356,3811.0,-0.49,0.07,-0.21,16.42,-15.62,-0.85
357,3820.0,-0.61,0.2,-0.1,24.23,-31.25,-0.85
358,3827.0,-0.7,0.34,0.03,25.94,-62.5,-0.85
359,3834.0,-0.77,0.43,0.1,27.71,-78.12,-0.85
360,3842.0,-0.82,0.44,0.12,30.4,-93.75,-0.92
361,3849.0,-0.84,0.42,0.11,37.35,-109.38,-0.92
362,3858.0,-0.83,0.3,0.07,55.6,-140.62,-0.92
363,3864.0,-0.82,0.24,0.02,69.82,-140.62,-0.92
364,3872.0,-0.84,0.19,-0.04,90.52,-156.25,-0.92
365,3879.0,-0.9,0.16,-0.08,105.16,-171.88,-0.92
366,3886.0,-0.99,0.15,-0.14,111.21,-187.5,-0.92
367,3894.0,-1.05,0.14,-0.25,112.67,-187.5,-0.92
368,3902.0,-1.09,0.04,-0.4,112.24,-203.12,-0.92
369,3909.0,-1.09,-0.08,-0.52,111.76,-203.12,-0.92
370,3916.0,-1.07,-0.25,-0.71,118.35,-218.75,-0.92
371,3924.0,-1.05,-0.43,-0.89,130.98,-203.12,-0.92
372,3931.0,-1.04,-0.71,-1.17,151.0,-203.12,-0.92
373,3939.0,-1.09,-0.9,-1.28,165.53,-187.5,-0.92
374,3947.0,-1.26,-0.81,-1.26,180.54,-187.5,-0.92
375,3955.0,-1.43,-0.74,-1.14,197.14,-187.5,-0.92
376,3961.0,-1.26,-0.51,-0.77,212.28,-218.75,-0.92
377,3969.0,-0.51,-0.45,-0.76,257.2,-250.0,-0.92
378,3976.0,0.35,-0.59,-0.97,278.56,-265.62,-0.92
379,3984.0,1.1,-0.54,-1.3,229.8,-203.12,-0.92
380,3992.0,1.4,-0.16,-1.95,156.25,-140.62,-0.92
381,4000.0,1.4,-0.02,-2.35,72.2,-46.88,-0.92
382,4006.0,0.91,0.08,-2.3,4.64,46.88,-0.92
383,4014.0,0.17,0.03,-2.15,-54.75,109.38,-0.92
384,4021.0,-0.38,-0.16,-1.97,-101.99,156.25,-0.92
385,4030.0,-0.55,-0.25,-1.8,-144.84,171.88,-0.92
386,4037.0,-0.61,-0.41,-1.62,-181.21,203.12,-0.92
387,4052.0,-0.85,-1.0,-1.3,-191.16,234.38,-0.92
388,4059.0,-0.95,-1.13,-1.15,-159.0,234.38,-0.92
389,4067.0,-0.92,-1.1,-0.99,-116.39,218.75,-0.92
390,4082.0,-0.77,-0.58,-0.68,-53.77,203.12,-0.92
391,4088.0,-0.75,-0.33,-0.57,-47.97,203.12,-0.92
392,4096.0,-0.75,-0.12,-0.43,-53.47,203.12,-0.98
393,4105.0,-0.79,0.0,-0.31,-64.03,218.75,-0.98
394,4112.0,-0.81,0.06,-0.21,-72.14,218.75,-0.98
395,4119.0,-0.84,0.07,-0.13,-77.76,218.75,-0.98
396,4126.0,-0.86,0.06,-0.04,-77.51,203.12,-0.98
397,4134.0,-0.87,0.05,0.02,-73.24,203.12,-0.98
398,4141.0,-0.87,0.05,0.09,-67.44,187.5,-0.98
399,4149.0,-0.88,0.09,0.18,-59.88,171.88,-0.98
400,4157.0,-0.86,0.16,0.27,-51.7,156.25,-0.98
401,4165.0,-0.86,0.24,0.35,-42.54,140.62,-0.98
402,4171.0,-0.87,0.33,0.41,-34.48,125.0,-0.98
403,4179.0,-0.89,0.42,0.49,-27.53,109.38,-0.98
404,4186.0,-0.93,0.51,0.59,-22.46,93.75,-0.98
405,4194.0,-0.95,0.57,0.61,-17.4,78.12,-0.98
406,4202.0,-0.96,0.6,0.55,-12.63,62.5,-0.98
407,4209.0,-0.96,0.54,0.51,-4.52,46.88,-0.98
408,4216.0,-0.93,0.4,0.35,10.31,31.25,-0.98
409,4224.0,-0.86,0.23,0.2,19.47,0.0,-0.98
410,4248.0,-0.37,-0.04,-0.33,77.33,-62.5,-0.98
411,4253.0,-0.41,0.06,-0.34,83.25,-78.12,-0.98
412,4262.0,-0.52,0.25,-0.29,74.46,-93.75,-0.98
413,4269.0,-0.65,0.37,-0.19,59.14,-109.38,-0.98
414,4285.0,-0.81,0.43,0.0,27.59,-140.62,-0.98
415,4291.0,-0.85,0.38,0.0,24.23,-156.25,-0.98
416,4299.0,-0.84,0.3,-0.06,25.76,-171.88,-0.98
417,4306.0,-0.78,0.19,-0.13,28.14,-187.5,-0.98
418,4314.0,-0.76,0.1,-0.23,34.85,-187.5,-0.98
419,4322.0,-0.81,-0.01,-0.34,44.92,-187.5,-0.98
420,4336.0,-0.91,-0.34,-0.73,71.04,-218.75,-0.98
421,4344.0,-0.86,-0.56,-0.98,79.47,-218.75,-0.98
422,4351.0,-0.79,-0.72,-1.18,91.98,-203.12,-1.04
423,4359.0,-0.81,-0.82,-1.33,109.62,-187.5,-1.04
424,4367.0,-0.94,-0.89,-1.39,126.83,-171.88,-1.04
425,4375.0,-1.13,-0.85,-1.39,126.95,-156.25,-1.04
426,4389.0,-1.6,-0.26,-0.72,115.3,-171.88,-1.04
427,4396.0,-1.53,-0.15,-0.25,117.92,-218.75,-1.04
428,4404.0,-0.75,-0.52,-0.08,131.9,-265.62,-1.04
429,4412.0,0.4,-0.89,-0.43,156.68,-265.62,-1.04
430,4419.0,1.05,-0.86,-0.9,152.89,-234.38,-1.04
431,4426.0,1.37,-0.48,-1.37,107.48,-171.88,-1.04
432,4434.0,1.19,-0.27,-1.57,54.69,-93.75,-1.04
433,4442.0,0.75,-0.23,-1.74,13.37,-15.62,-1.04
434,4449.0,0.38,-0.16,-1.82,-21.55,46.88,-1.04
435,4457.0,-0.08,-0.14,-1.88,-55.91,93.75,-1.04
436,4464.0,-0.33,-0.15,-1.91,-88.26,125.0,-1.04
437,4479.0,-0.58,-0.38,-1.81,-138.73,171.88,-1.04
438,4487.0,-0.72,-0.56,-1.69,-142.4,187.5,-1.04
439,4494.0,-0.78,-0.69,-1.58,-132.45,187.5,-1.04
440,4501.0,-0.71,-0.81,-1.44,-114.93,187.5,-1.04
441,4509.0,-0.59,-0.85,-1.31,-94.12,187.5,-1.04
442,4516.0,-0.54,-0.81,-1.16,-73.36,187.5,-1.04
443,4524.0,-0.58,-0.68,-1.03,-60.73,203.12,-1.04
444,4532.0,-0.64,-0.49,-0.9,-57.8,203.12,-1.04
445,4539.0,-0.67,-0.34,-0.78,-61.95,203.12,-1.04
446,4546.0,-0.72,-0.24,-0.65,-70.19,218.75,-1.04
447,4554.0,-0.74,-0.18,-0.54,-79.35,218.75,-1.04
448,4561.0,-0.74,-0.12,-0.45,-86.85,218.75,-1.04
449,4569.0,-0.72,-0.06,-0.37,-91.74,218.75,-1.04
450,4577.0,-0.71,0.0,-0.31,-93.69,218.75,-1.04
451,4583.0,-0.7,0.04,-0.25,-94.91,218.75,-1.04
452,4593.0,-0.71,0.09,-0.17,-94.91,203.12,-1.04
453,4599.0,-0.72,0.1,-0.11,-92.83,203.12,-1.04
454,4606.0,-0.74,0.14,-0.04,-88.5,187.5,-1.1
455,4615.0,-0.76,0.21,0.05,-84.29,171.88,-1.1
456,4622.0,-0.78,0.29,0.15,-80.2,171.88,-1.1
457,4629.0,-0.78,0.39,0.25,-77.82,156.25,-1.1
458,4636.0,-0.8,0.49,0.38,-78.19,140.62,-1.1
459,4646.0,-0.81,0.58,0.44,-79.83,125.0,-1.1
460,4652.0,-0.83,0.58,0.44,-77.09,109.38,-1.1
461,4659.0,-0.85,0.52,0.37,-68.05,93.75,-1.1
462,4666.0,-0.87,0.44,0.23,-52.31,62.5,-1.1
463,4674.0,-0.84,0.35,0.1,-32.04,46.88,-1.1
464,4681.0,-0.81,0.25,0.02,-7.51,31.25,-1.1
465,4689.0,-0.83,0.16,-0.02,17.27,15.62,-1.1
466,4697.0,-0.87,0.13,0.0,39.86,0.0,-1.1
467,4704.0,-0.91,0.21,0.07,57.5,-15.62,-1.1
468,4711.0,-0.98,0.35,0.21,67.57,-31.25,-1.1
469,4719.0,-1.03,0.47,0.28,70.86,-46.88,-1.1
470,4727.0,-1.05,0.54,0.28,71.66,-78.12,-1.1
471,4735.0,-1.02,0.51,0.24,70.98,-109.38,-1.1
472,4742.0,-0.97,0.45,0.21,74.22,-125.0,-1.1
473,4750.0,-0.94,0.36,0.21,81.3,-140.62,-1.1
474,4756.0,-0.94,0.31,0.21,87.65,-156.25,-1.1
475,4772.0,-0.95,0.28,0.17,86.43,-171.88,-1.1
476,4779.0,-0.94,0.24,0.14,81.12,-187.5,-1.1
477,4787.0,-0.95,0.18,0.06,79.53,-203.12,-1.1
478,4794.0,-0.95,0.06,-0.09,85.14,-203.12,-1.1
479,4801.0,-0.95,-0.09,-0.29,96.56,-218.75,-1.1
480,4809.0,-0.94,-0.29,-0.51,111.08,-218.75,-1.1
481,4816.0,-0.93,-0.42,-0.73,130.31,-218.75,-1.1
482,4825.0,-0.94,-0.57,-1.01,152.28,-218.75,-1.1
483,4832.0,-0.98,-0.76,-1.19,168.09,-203.12,-1.1
484,4838.0,-0.95,-0.82,-1.23,180.54,-218.75,-1.1
485,4847.0,-0.7,-0.7,-1.26,191.89,-234.38,-1.1
486,4854.0,-0.31,-0.56,-1.27,197.27,-250.0,-1.1
487,4862.0,0.28,-0.52,-1.35,181.52,-234.38,-1.1
488,4869.0,0.81,-0.54,-1.53,139.47,-187.5,-1.16
489,4876.0,1.01,-0.49,-1.69,80.51,-140.62,-1.16
490,4884.0,1.0,-0.5,-1.78,23.99,-78.12,-1.16
491,4891.0,0.74,-0.69,-1.84,-21.36,0.0,-1.16
492,4899.0,0.36,-0.88,-1.83,-42.91,46.88,-1.16
493,4907.0,-0.04,-0.89,-1.77,-50.54,93.75,-1.16
494,4914.0,-0.3,-0.75,-1.66,-59.94,125.0,-1.16
495,4921.0,-0.47,-0.54,-1.48,-79.83,140.62,-1.16
496,4929.0,-0.64,-0.54,-1.36,-99.06,171.88,-1.16
497,4936.0,-0.71,-0.62,-1.24,-112.43,171.88,-1.16
498,4944.0,-0.75,-0.73,-1.1,-111.27,171.88,-1.16
499,4952.0,-0.74,-0.78,-1.01,-98.94,171.88,-1.16
500,4959.0,-0.75,-0.77,-0.91,-83.44,171.88,-1.16
501,4966.0,-0.77,-0.69,-0.81,-70.8,171.88,-1.16
502,4974.0,-0.8,-0.55,-0.72,-62.5,171.88,-1.16
503,4981.0,-0.8,-0.49,-0.63,-60.85,171.88,-1.16
504,4989.0,-0.81,-0.39,-0.55,-62.68,171.88,-1.16
505,5004.0,-0.84,-0.16,-0.39,-66.89,171.88,-1.16
506,5011.0,-0.86,-0.08,-0.32,-69.76,171.88,-1.16
507,5019.0,-0.88,-0.02,-0.25,-72.63,171.88,-1.16
508,5029.0,-0.89,0.04,-0.19,-75.56,156.25,-1.16
509,5034.0,-0.89,0.09,-0.12,-76.6,156.25,-1.16
510,5041.0,-0.87,0.14,-0.07,-75.44,140.62,-1.16
511,5049.0,-0.86,0.18,0.0,-71.9,125.0,-1.16
512,5057.0,-0.85,0.25,0.07,-67.63,125.0,-1.16
513,5071.0,-0.85,0.38,0.2,-59.2,93.75,-1.16
514,5079.0,-0.86,0.38,0.21,-54.32,78.12,-1.16
515,5086.0,-0.84,0.35,0.23,-52.55,62.5,-1.16
516,5094.0,-0.82,0.34,0.26,-50.48,46.88,-1.16
517,5101.0,-0.79,0.32,0.25,-46.88,31.25,-1.16
518,5109.0,-0.77,0.29,0.16,-43.88,15.62,-1.16
519,5117.0,-0.74,0.22,0.03,-40.59,0.0,-1.16
520,5132.0,-0.63,0.16,-0.08,-23.8,-31.25,-1.22
521,5139.0,-0.64,0.21,-0.1,-14.04,-46.88,-1.22
522,5148.0,-0.69,0.32,-0.09,-5.31,-62.5,-1.22
523,5164.0,-0.82,0.46,-0.01,15.87,-93.75,-1.22
524,5176.0,-0.86,0.42,0.0,35.95,-125.0,-1.22
525,5192.0,-0.8,0.29,-0.06,59.63,-156.25,-1.22
526,5200.0,-0.81,0.24,-0.08,67.5,-171.88,-1.22
527,5207.0,-0.84,0.2,-0.14,71.29,-171.88,-1.22
528,5214.0,-0.88,0.13,-0.24,72.33,-187.5,-1.22
529,5222.0,-0.92,0.06,-0.38,73.36,-203.12,-1.22
530,5229.0,-0.97,-0.1,-0.63,73.91,-203.12,-1.22
531,5237.0,-0.97,-0.28,-0.9,74.1,-203.12,-1.22
532,5244.0,-0.92,-0.52,-1.22,82.64,-203.12,-1.22
533,5251.0,-0.93,-0.76,-1.4,94.12,-187.5,-1.22
534,5259.0,-1.01,-0.85,-1.43,111.21,-171.88,-1.22
535,5266.0,-1.21,-0.71,-1.33,147.52,-171.88,-1.22
536,5274.0,-1.26,-0.73,-0.99,188.48,-203.12,-1.22
537,5282.0,-0.74,-0.95,-0.95,217.9,-250.0,-1.22
538,5289.0,0.11,-0.93,-1.07,224.12,-250.0,-1.22
539,5296.0,0.83,-0.87,-1.4,183.41,-218.75,-1.22
540,5304.0,1.36,-0.63,-1.71,116.03,-156.25,-1.22
541,5311.0,1.14,-0.47,-1.88,56.15,-62.5,-1.22
542,5319.0,0.66,-0.38,-2.08,6.23,15.62,-1.22
543,5327.0,0.14,-0.34,-2.23,-36.25,78.12,-1.22
544,5334.0,-0.32,-0.2,-2.22,-80.51,125.0,-1.22
545,5341.0,-0.5,-0.11,-2.11,-122.07,171.88,-1.22
546,5349.0,-0.66,-0.24,-1.95,-155.88,203.12,-1.22
547,5356.0,-0.77,-0.43,-1.77,-168.7,218.75,-1.22
548,5364.0,-0.87,-0.64,-1.56,-157.9,218.75,-1.22
549,5372.0,-0.84,-0.81,-1.39,-135.19,218.75,-1.22
550,5379.0,-0.72,-0.84,-1.17,-105.53,218.75,-1.28
551,5386.0,-0.64,-0.7,-0.97,-78.06,218.75,-1.28
552,5394.0,-0.64,-0.46,-0.75,-61.22,218.75,-1.28
553,5401.0,-0.66,-0.26,-0.57,-57.25,218.75,-1.28
554,5410.0,-0.71,-0.08,-0.39,-62.5,218.75,-1.28
555,5423.0,-0.77,0.09,-0.12,-76.35,218.75,-1.28
556,5432.0,-0.78,0.11,-0.03,-82.46,218.75,-1.28
557,5439.0,-0.78,0.13,0.07,-85.27,203.12,-1.28
558,5447.0,-0.78,0.17,0.12,-86.18,187.5,-1.28
559,5454.0,-0.77,0.21,0.15,-87.1,171.88,-1.28
560,5477.0,-0.72,0.43,0.36,-91.74,125.0,-1.28
561,5484.0,-0.72,0.54,0.4,-92.29,109.38,-1.28
562,5492.0,-0.75,0.63,0.46,-92.59,93.75,-1.28
563,5499.0,-0.76,0.65,0.47,-91.31,78.12,-1.28
564,5506.0,-0.78,0.59,0.43,-86.85,46.88,-1.28
565,5514.0,-0.76,0.47,0.31,-82.76,31.25,-1.28
566,5521.0,-0.71,0.35,0.13,-71.29,15.62,-1.28
567,5529.0,-0.62,0.14,-0.06,-51.57,-15.62,-1.28
568,5537.0,-0.56,0.01,-0.16,-23.07,-31.25,-1.28
569,5544.0,-0.53,0.01,-0.24,9.03,-31.25,-1.28
570,5551.0,-0.57,0.12,-0.2,33.87,-46.88,-1.28
571,5559.0,-0.66,0.3,-0.14,50.6,-62.5,-1.28
572,5566.0,-0.73,0.41,-0.05,55.97,-78.12,-1.28
573,5574.0,-0.79,0.48,0.02,58.78,-93.75,-1.28
574,5582.0,-0.82,0.46,0.06,60.67,-109.38,-1.28
575,5589.0,-0.81,0.38,0.04,66.04,-140.62,-1.28
576,5596.0,-0.76,0.29,0.04,72.69,-156.25,-1.28
577,5604.0,-0.72,0.22,0.03,79.04,-156.25,-1.28
578,5611.0,-0.73,0.21,-0.03,83.74,-171.88,-1.28
579,5620.0,-0.8,0.17,-0.2,86.0,-171.88,-1.28
580,5626.0,-0.87,0.07,-0.43,84.72,-187.5,-1.28
581,5641.0,-0.96,-0.29,-0.9,79.04,-187.5,-1.34
582,5649.0,-1.01,-0.46,-1.03,86.24,-187.5,-1.34
583,5657.0,-1.12,-0.65,-1.16,102.72,-171.88,-1.34
584,5664.0,-1.22,-0.73,-1.16,120.79,-171.88,-1.34
585,5671.0,-1.3,-0.62,-1.07,142.52,-187.5,-1.34
586,5679.0,-1.11,-0.48,-0.97,168.58,-218.75,-1.34
587,5686.0,-0.55,-0.68,-0.91,189.51,-250.0,-1.34
588,5694.0,0.28,-1.03,-1.06,205.38,-250.0,-1.34
589,5702.0,0.99,-1.07,-1.48,193.79,-218.75,-1.34
590,5708.0,1.26,-0.78,-1.92,151.43,-140.62,-1.34
591,5716.0,1.25,-0.42,-2.1,91.74,-62.5,-1.34
592,5724.0,0.67,-0.24,-2.11,30.33,15.62,-1.34
593,5731.0,0.1,-0.21,-2.09,-21.97,62.5,-1.34
594,5747.0,-0.41,-0.19,-1.88,-112.92,140.62,-1.34
595,5754.0,-0.49,-0.27,-1.73,-148.62,187.5,-1.34
596,5769.0,-0.77,-0.64,-1.35,-171.81,218.75,-1.34
597,5776.0,-0.85,-0.8,-1.17,-154.54,203.12,-1.34
598,5785.0,-0.87,-0.88,-0.98,-127.75,203.12,-1.34
599,5791.0,-0.85,-0.86,-0.86,-99.24,187.5,-1.34
600,5799.0,-0.83,-0.75,-0.73,-75.44,187.5,-1.34
601,5806.0,-0.84,-0.58,-0.62,-59.08,187.5,-1.34
602,5814.0,-0.83,-0.41,-0.54,-51.76,187.5,-1.34
603,5829.0,-0.82,-0.18,-0.36,-53.16,187.5,-1.34
604,5836.0,-0.81,-0.08,-0.28,-53.04,187.5,-1.34
605,5844.0,-0.81,-0.01,-0.24,-51.21,187.5,-1.34
606,5851.0,-0.81,0.06,-0.21,-50.05,171.88,-1.34
607,5859.0,-0.8,0.13,-0.18,-51.82,171.88,-1.34
608,5875.0,-0.76,0.3,-0.06,-58.35,140.62,-1.34
609,5883.0,-0.75,0.41,-0.02,-64.7,125.0,-1.34
610,5889.0,-0.73,0.47,-0.01,-69.27,125.0,-1.4
611,5896.0,-0.7,0.49,0.05,-74.34,109.38,-1.4
612,5904.0,-0.7,0.49,0.14,-72.2,93.75,-1.4
613,5912.0,-0.73,0.49,0.22,-61.77,78.12,-1.4
614,5919.0,-0.77,0.5,0.26,-48.83,62.5,-1.4
615,5926.0,-0.8,0.52,0.27,-34.48,46.88,-1.4
616,5934.0,-0.8,0.51,0.25,-20.69,15.62,-1.4
617,5949.0,-0.74,0.41,0.21,6.41,-31.25,-1.4
618,5957.0,-0.74,0.39,0.2,22.28,-46.88,-1.4
619,5964.0,-0.77,0.38,0.18,39.86,-62.5,-1.4
620,5971.0,-0.8,0.38,0.17,53.16,-78.12,-1.4
621,5979.0,-0.83,0.36,0.18,64.82,-93.75,-1.4
622,5986.0,-0.85,0.35,0.2,73.91,-109.38,-1.4
623,5995.0,-0.87,0.32,0.21,82.76,-140.62,-1.4
624,6001.0,-0.88,0.3,0.2,89.78,-156.25,-1.4
625,6009.0,-0.89,0.29,0.16,95.28,-171.88,-1.4
626,6017.0,-0.88,0.25,0.09,97.84,-187.5,-1.4
627,6024.0,-0.86,0.22,0.04,98.69,-203.12,-1.4
628,6040.0,-0.88,0.03,-0.37,108.83,-218.75,-1.4
629,6046.0,-0.87,-0.25,-0.78,116.64,-218.75,-1.4
630,6054.0,-0.78,-0.56,-1.11,129.94,-218.75,-1.4
631,6061.0,-0.7,-0.89,-1.4,149.9,-203.12,-1.4
632,6069.0,-0.75,-0.95,-1.5,171.88,-187.5,-1.4
633,6077.0,-0.87,-0.76,-1.59,212.95,-187.5,-1.4
634,6083.0,-0.88,-0.83,-1.54,247.31,-203.12,-1.4
635,6091.0,-0.56,-0.91,-1.39,277.83,-218.75,-1.4
636,6099.0,-0.12,-0.77,-1.33,298.58,-234.38,-1.4
637,6107.0,0.46,-0.63,-1.46,277.89,-234.38,-1.4
638,6114.0,1.14,-0.4,-1.75,211.73,-187.5,-1.4
639,6122.0,1.4,-0.04,-1.94,117.74,-93.75,-1.4
640,6129.0,1.08,0.15,-2.0,14.28,-15.62,-1.4
641,6136.0,0.69,0.06,-1.92,-73.61,46.88,-1.4
642,6144.0,0.16,-0.1,-1.83,-134.64,109.38,-1.46
643,6151.0,-0.21,-0.18,-1.74,-169.74,140.62,-1.46
644,6159.0,-0.43,-0.33,-1.68,-191.59,187.5,-1.46
645,6166.0,-0.6,-0.52,-1.64,-195.8,203.12,-1.46
646,6174.0,-0.84,-0.66,-1.49,-183.84,218.75,-1.46
647,6181.0,-1.01,-0.75,-1.39,-155.33,218.75,-1.46
648,6189.0,-1.03,-0.85,-1.3,-117.37,203.12,-1.46
649,6196.0,-0.91,-0.86,-1.22,-86.43,187.5,-1.46
650,6206.0,-0.71,-0.69,-1.06,-49.19,187.5,-1.46
651,6211.0,-0.66,-0.56,-0.95,-38.15,187.5,-1.46
652,6219.0,-0.65,-0.38,-0.81,-33.75,203.12,-1.46
653,6226.0,-0.65,-0.22,-0.64,-37.23,203.12,-1.46
654,6234.0,-0.68,-0.11,-0.51,-43.64,203.12,-1.46
655,6242.0,-0.7,-0.03,-0.37,-52.55,203.12,-1.46
656,6250.0,-0.72,0.04,-0.25,-63.84,203.12,-1.46
657,6256.0,-0.72,0.08,-0.17,-71.47,203.12,-1.46
658,6264.0,-0.72,0.1,-0.1,-79.35,187.5,-1.46
659,6271.0,-0.73,0.13,-0.03,-85.75,187.5,-1.46
660,6279.0,-0.72,0.16,0.01,-89.72,171.88,-1.46
661,6287.0,-0.71,0.18,0.1,-91.92,156.25,-1.46
662,6301.0,-0.74,0.31,0.25,-84.53,125.0,-1.46
663,6309.0,-0.75,0.37,0.25,-78.8,109.38,-1.46
664,6316.0,-0.75,0.41,0.2,-74.1,93.75,-1.46
665,6324.0,-0.74,0.47,0.2,-73.3,78.12,-1.46
666,6332.0,-0.73,0.52,0.21,-70.13,62.5,-1.46
667,6339.0,-0.75,0.54,0.18,-63.23,46.88,-1.46
668,6346.0,-0.76,0.5,0.14,-57.68,31.25,-1.46
669,6354.0,-0.75,0.4,0.09,-50.6,15.62,-1.46
670,6362.0,-0.75,0.26,0.07,-38.09,-15.62,-1.46
671,6370.0,-0.75,0.18,0.05,-22.46,-31.25,-1.46
672,6376.0,-0.76,0.14,0.06,-1.95,-46.88,-1.46
673,6384.0,-0.77,0.16,0.04,19.35,-62.5,-1.46
674,6391.0,-0.82,0.25,0.03,35.71,-78.12,-1.46
675,6399.0,-0.86,0.34,0.03,47.06,-93.75,-1.53
676,6407.0,-0.9,0.39,0.04,52.67,-109.38,-1.53
677,6414.0,-0.93,0.4,0.02,56.52,-125.0,-1.53
678,6421.0,-0.95,0.38,0.0,61.71,-140.62,-1.53
679,6429.0,-0.95,0.32,-0.0,66.77,-156.25,-1.53
680,6436.0,-0.96,0.26,-0.05,74.95,-156.25,-1.53
681,6444.0,-0.98,0.2,-0.17,84.96,-171.88,-1.53
682,6452.0,-1.01,0.09,-0.33,94.18,-187.5,-1.53
683,6458.0,-1.02,-0.03,-0.52,100.4,-187.5,-1.53
684,6466.0,-1.01,-0.17,-0.72,101.93,-187.5,-1.53
685,6474.0,-0.99,-0.25,-0.91,103.09,-187.5,-1.53
686,6481.0,-0.98,-0.4,-1.12,102.23,-187.5,-1.53
687,6489.0,-0.99,-0.54,-1.18,99.0,-171.88,-1.53
688,6497.0,-1.06,-0.6,-1.2,109.5,-156.25,-1.53
689,6505.0,-1.17,-0.66,-1.12,139.16,-171.88,-1.53
690,6511.0,-1.07,-0.61,-0.95,159.3,-187.5,-1.53
691,6519.0,-0.6,-0.48,-0.85,199.34,-218.75,-1.53
692,6526.0,0.1,-0.59,-0.96,221.37,-218.75,-1.53
693,6541.0,1.26,-0.53,-1.79,151.12,-109.38,-1.53
694,6549.0,1.22,-0.37,-2.17,96.92,-46.88,-1.53
695,6556.0,0.83,-0.25,-2.19,40.83,31.25,-1.53
696,6572.0,-0.26,-0.32,-2.07,-67.38,140.62,-1.53
697,6579.0,-0.46,-0.29,-1.96,-114.93,156.25,-1.53
698,6586.0,-0.56,-0.36,-1.8,-157.53,187.5,-1.53
699,6594.0,-0.64,-0.55,-1.63,-183.41,203.12,-1.53
700,6601.0,-0.76,-0.81,-1.43,-183.72,218.75,-1.53
701,6609.0,-0.82,-0.97,-1.26,-161.87,218.75,-1.53
702,6617.0,-0.82,-1.04,-1.1,-127.44,218.75,-1.53
703,6624.0,-0.76,-0.95,-0.93,-93.69,203.12,-1.53
704,6631.0,-0.69,-0.76,-0.8,-64.94,203.12,-1.53
705,6640.0,-0.66,-0.55,-0.7,-48.89,203.12,-1.53
706,6646.0,-0.66,-0.36,-0.58,-47.79,203.12,-1.53
707,6655.0,-0.68,-0.2,-0.46,-53.59,203.12,-1.59
708,6662.0,-0.71,-0.1,-0.36,-62.99,203.12,-1.59
709,6668.0,-0.74,-0.04,-0.27,-71.96,203.12,-1.59
710,6677.0,-0.76,0.0,-0.18,-83.07,203.12,-1.59
711,6684.0,-0.76,0.02,-0.12,-90.88,187.5,-1.59
712,6699.0,-0.72,0.06,-0.07,-102.78,156.25,-1.59
713,6707.0,-0.69,0.06,-0.03,-102.78,140.62,-1.59
714,6713.0,-0.67,0.1,0.02,-98.75,140.62,-1.59
715,6723.0,-0.66,0.19,0.09,-89.36,125.0,-1.59
716,6729.0,-0.66,0.25,0.14,-84.53,109.38,-1.59
717,6736.0,-0.66,0.36,0.19,-81.6,93.75,-1.59
718,6745.0,-0.67,0.46,0.24,-84.17,78.12,-1.59
719,6751.0,-0.67,0.55,0.28,-92.41,62.5,-1.59
720,6759.0,-0.69,0.58,0.3,-101.93,46.88,-1.59
721,6766.0,-0.7,0.56,0.28,-111.63,15.62,-1.59
722,6774.0,-0.7,0.52,0.25,-120.85,0.0,-1.59
723,6781.0,-0.68,0.45,0.19,-122.68,-15.62,-1.59
724,6790.0,-0.65,0.35,0.13,-118.77,-46.88,-1.59
725,6796.0,-0.63,0.28,0.11,-106.87,-62.5,-1.59
726,6804.0,-0.66,0.24,0.09,-83.37,-62.5,-1.59
727,6811.0,-0.7,0.26,0.08,-53.16,-78.12,-1.59
728,6819.0,-0.78,0.3,0.06,-20.94,-93.75,-1.59
729,6827.0,-0.84,0.35,0.03,9.4,-109.38,-1.59
730,6833.0,-0.88,0.39,0.0,32.78,-125.0,-1.59
731,6841.0,-0.91,0.4,-0.03,51.57,-125.0,-1.59
732,6849.0,-0.95,0.38,-0.03,65.31,-140.62,-1.59
733,6856.0,-0.99,0.35,-0.05,75.2,-156.25,-1.59
734,6864.0,-1.03,0.32,-0.07,81.85,-156.25,-1.59
735,6872.0,-1.07,0.26,-0.13,87.22,-171.88,-1.59
736,6878.0,-1.08,0.18,-0.24,92.22,-187.5,-1.59
737,6886.0,-1.06,0.05,-0.35,93.32,-187.5,-1.59
738,6894.0,-1.03,-0.06,-0.48,90.64,-187.5,-1.59
739,6902.0,-0.99,-0.09,-0.53,86.36,-187.5,-1.59
740,6909.0,-0.95,-0.06,-0.45,89.78,-187.5,-1.59
741,6916.0,-0.83,-0.24,-0.37,107.54,-187.5,-1.65
742,6924.0,-0.63,-0.54,-0.39,146.97,-187.5,-1.65
743,6931.0,-0.36,-0.81,-0.63,196.11,-187.5,-1.65
744,6939.0,-0.18,-0.88,-1.04,238.46,-171.88,-1.65
745,6946.0,-0.09,-0.76,-1.52,254.88,-156.25,-1.65
746,6955.0,-0.09,-0.64,-2.04,244.93,-125.0,-1.65
747,6961.0,-0.11,-0.58,-2.42,203.55,-93.75,-1.65
748,6969.0,-0.16,-0.46,-2.64,140.14,-46.88,-1.65
749,6976.0,-0.25,-0.4,-2.73,71.35,0.0,-1.65
750,6984.0,-0.28,-0.49,-2.63,2.69,31.25,-1.65
751,6992.0,-0.27,-0.61,-2.45,-50.54,78.12,-1.65
752,6999.0,-0.29,-0.69,-2.19,-94.54,109.38,-1.65
753,7006.0,-0.36,-0.72,-1.87,-123.78,125.0,-1.65
754,7014.0,-0.43,-0.71,-1.58,-141.36,156.25,-1.65
755,7021.0,-0.5,-0.7,-1.36,-145.94,171.88,-1.65
756,7029.0,-0.54,-0.76,-1.26,-143.8,171.88,-1.65
757,7037.0,-0.56,-0.8,-1.21,-135.99,187.5,-1.65
758,7043.0,-0.56,-0.8,-1.18,-123.84,203.12,-1.65
759,7051.0,-0.52,-0.74,-1.09,-109.25,203.12,-1.65
760,7059.0,-0.5,-0.65,-0.97,-94.79,203.12,-1.65
761,7067.0,-0.47,-0.51,-0.84,-78.0,203.12,-1.65
762,7074.0,-0.45,-0.41,-0.73,-64.21,203.12,-1.65
763,7082.0,-0.43,-0.31,-0.58,-52.92,203.12,-1.65
764,7088.0,-0.43,-0.2,-0.46,-45.9,187.5,-1.65
765,7096.0,-0.43,-0.09,-0.35,-43.52,187.5,-1.65
766,7104.0,-0.44,-0.0,-0.24,-45.29,187.5,-1.65
767,7111.0,-0.45,0.06,-0.15,-49.74,171.88,-1.65
768,7120.0,-0.47,0.1,-0.06,-55.54,156.25,-1.65
769,7126.0,-0.48,0.12,0.02,-61.34,156.25,-1.65
770,7135.0,-0.49,0.17,0.12,-64.88,125.0,-1.65
771,7141.0,-0.51,0.21,0.21,-66.65,125.0,-1.65
772,7157.0,-0.56,0.34,0.36,-71.53,78.12,-1.65
773,7166.0,-0.59,0.41,0.42,-73.3,62.5,-1.65
774,7172.0,-0.64,0.44,0.42,-70.98,46.88,-1.71
775,7179.0,-0.66,0.44,0.39,-67.5,31.25,-1.71
776,7186.0,-0.69,0.43,0.35,-61.46,0.0,-1.71
777,7194.0,-0.69,0.41,0.31,-52.8,-15.62,-1.71
778,7202.0,-0.71,0.39,0.28,-42.85,-31.25,-1.71
779,7208.0,-0.73,0.37,0.25,-33.33,-62.5,-1.71
780,7216.0,-0.75,0.35,0.24,-24.41,-78.12,-1.71
781,7224.0,-0.78,0.34,0.2,-13.73,-93.75,-1.71
782,7231.0,-0.81,0.31,0.15,-0.18,-109.38,-1.71
783,7239.0,-0.84,0.3,0.1,14.04,-125.0,-1.71
784,7247.0,-0.9,0.31,0.05,31.19,-140.62,-1.71
785,7253.0,-0.97,0.33,0.0,49.32,-156.25,-1.71
786,7261.0,-1.07,0.36,-0.06,66.04,-156.25,-1.71
787,7269.0,-1.15,0.39,-0.11,81.05,-171.88,-1.71
788,7277.0,-1.19,0.4,-0.14,89.9,-187.5,-1.71
789,7284.0,-1.22,0.41,-0.16,93.93,-187.5,-1.71
790,7291.0,-1.25,0.36,-0.26,95.15,-203.12,-1.71
791,7299.0,-1.25,0.18,-0.5,95.4,-203.12,-1.71
792,7306.0,-1.19,-0.07,-0.79,95.34,-203.12,-1.71
793,7314.0,-1.12,-0.35,-1.1,94.24,-203.12,-1.71
794,7321.0,-1.14,-0.54,-1.22,102.29,-171.88,-1.71
795,7330.0,-1.29,-0.76,-1.18,123.23,-156.25,-1.71
796,7336.0,-1.28,-0.92,-1.08,167.72,-171.88,-1.71
797,7344.0,-0.73,-1.31,-0.97,233.64,-203.12,-1.71
798,7351.0,-0.09,-1.61,-1.07,300.6,-218.75,-1.71
799,7359.0,0.5,-1.3,-1.38,334.84,-218.75,-1.71
800,7367.0,0.85,-0.65,-1.8,303.16,-156.25,-1.71
801,7374.0,1.0,-0.02,-2.25,226.01,-78.12,-1.71
802,7381.0,1.04,0.34,-2.41,135.8,0.0,-1.71
803,7389.0,0.59,0.37,-2.31,44.49,78.12,-1.71
804,7396.0,0.07,0.13,-2.2,-39.25,125.0,-1.71
805,7404.0,-0.24,-0.09,-2.02,-110.78,171.88,-1.71
806,7412.0,-0.42,-0.27,-1.76,-173.1,203.12,-1.71
807,7418.0,-0.51,-0.47,-1.51,-216.19,234.38,-1.71
808,7434.0,-1.0,-0.94,-0.89,-203.67,250.0,-1.77
809,7442.0,-1.15,-1.0,-0.73,-156.43,218.75,-1.77
810,7457.0,-0.91,-0.82,-0.57,-59.02,187.5,-1.77
811,7464.0,-0.75,-0.57,-0.5,-27.65,187.5,-1.77
812,7471.0,-0.7,-0.37,-0.44,-14.28,187.5,-1.77
813,7479.0,-0.72,-0.21,-0.33,-10.31,187.5,-1.77
814,7487.0,-0.75,-0.1,-0.25,-10.07,187.5,-1.77
815,7495.0,-0.81,-0.04,-0.2,-13.31,187.5,-1.77
816,7501.0,-0.81,-0.01,-0.17,-14.77,171.88,-1.77
817,7510.0,-0.75,0.0,-0.13,-17.64,156.25,-1.77
818,7516.0,-0.71,-0.01,-0.08,-15.26,156.25,-1.77
819,7524.0,-0.68,-0.03,-0.13,-12.15,140.62,-1.77
820,7532.0,-0.62,-0.03,-0.21,-12.21,125.0,-1.77
821,7539.0,-0.57,-0.02,-0.18,-8.54,109.38,-1.77
822,7546.0,-0.54,-0.01,-0.14,-2.01,93.75,-1.77
823,7564.0,-0.52,0.06,-0.05,2.87,46.88,-1.77
824,7569.0,-0.51,0.06,-0.02,-2.08,46.88,-1.77
825,7577.0,-0.51,0.04,0.03,-12.27,15.62,-1.77
826,7583.0,-0.5,-0.01,0.12,-22.89,0.0,-1.77
827,7591.0,-0.5,-0.03,0.2,-31.01,-31.25,-1.77
828,7599.0,-0.51,-0.05,0.27,-35.28,-46.88,-1.77
829,7606.0,-0.51,-0.05,0.29,-36.38,-62.5,-1.77
830,7614.0,-0.51,-0.03,0.29,-33.63,-93.75,-1.77
831,7622.0,-0.51,0.0,0.25,-27.95,-109.38,-1.77
832,7630.0,-0.52,0.03,0.19,-23.74,-140.62,-1.77
833,7644.0,-0.55,0.03,0.0,-14.65,-171.88,-1.77
834,7660.0,-0.64,0.01,-0.2,-0.31,-187.5,-1.77
835,7675.0,-0.84,-0.04,-0.55,29.91,-203.12,-1.77
836,7681.0,-0.92,-0.11,-0.8,44.07,-203.12,-1.83
837,7689.0,-0.99,-0.27,-1.21,60.24,-203.12,-1.83
838,7696.0,-1.01,-0.43,-1.52,73.24,-187.5,-1.83
839,7705.0,-1.12,-0.58,-1.81,87.16,-171.88,-1.83
840,7711.0,-1.31,-0.58,-1.84,87.77,-156.25,-1.83
841,7719.0,-1.7,-0.06,-1.38,71.96,-156.25,-1.83
842,7726.0,-1.81,0.38,-0.83,68.85,-187.5,-1.83
843,7742.0,0.17,-0.74,-0.64,35.95,-218.75,-1.83
844,7749.0,0.74,-1.08,-1.21,54.63,-171.88,-1.83
845,7756.0,1.06,-1.0,-1.65,57.56,-125.0,-1.83
846,7764.0,1.07,-0.68,-1.65,46.63,-15.62,-1.83
847,7771.0,0.25,-0.48,-1.75,31.68,62.5,-1.83
848,7779.0,-0.5,-0.27,-2.01,10.99,125.0,-1.83
849,7787.0,-1.06,-0.13,-2.24,-21.48,156.25,-1.83
850,7793.0,-1.23,-0.11,-2.25,-54.02,171.88,-1.83
851,7801.0,-1.25,-0.24,-2.12,-81.05,203.12,-1.83
852,7809.0,-1.26,-0.46,-1.86,-91.8,218.75,-1.83
853,7817.0,-1.12,-0.63,-1.6,-82.21,218.75,-1.83
854,7824.0,-0.88,-0.73,-1.3,-61.95,218.75,-1.83
855,7833.0,-0.69,-0.72,-1.02,-29.54,218.75,-1.83
856,7838.0,-0.66,-0.66,-0.84,-14.53,218.75,-1.83
857,7846.0,-0.69,-0.51,-0.67,-0.43,218.75,-1.83
858,7855.0,-0.72,-0.31,-0.49,3.17,218.75,-1.83
859,7869.0,-0.75,-0.11,-0.25,-9.46,218.75,-1.83
860,7877.0,-0.74,-0.07,-0.14,-17.33,218.75,-1.83
861,7884.0,-0.72,-0.06,-0.07,-20.81,203.12,-1.83
862,7891.0,-0.7,-0.04,0.01,-22.71,203.12,-1.83
863,7899.0,-0.69,-0.01,0.1,-22.09,187.5,-1.83
864,7907.0,-0.69,0.02,0.16,-19.78,171.88,-1.83
865,7921.0,-0.7,0.08,0.28,-12.21,156.25,-1.83
866,7931.0,-0.7,0.11,0.31,-5.49,125.0,-1.83
867,7936.0,-0.69,0.13,0.32,-1.4,109.38,-1.89
868,7944.0,-0.67,0.15,0.32,3.17,93.75,-1.89
869,7952.0,-0.63,0.17,0.34,4.09,78.12,-1.89
870,7958.0,-0.57,0.18,0.36,7.63,62.5,-1.89
871,7966.0,-0.53,0.18,0.32,12.02,46.88,-1.89
872,7976.0,-0.47,0.1,0.1,13.24,15.62,-1.89
873,7982.0,-0.41,0.05,0.04,9.7,0.0,-1.89
874,7989.0,-0.31,0.0,-0.01,6.53,-15.62,-1.89
875,7997.0,-0.26,-0.03,-0.1,8.73,-31.25,-1.89
876,8003.0,-0.26,-0.1,-0.14,12.51,-46.88,-1.89
877,8011.0,-0.28,-0.15,-0.12,14.47,-62.5,-1.89
878,8019.0,-0.33,-0.14,-0.04,13.79,-93.75,-1.89
879,8027.0,-0.39,-0.09,0.06,9.22,-109.38,-1.89
880,8034.0,-0.46,-0.01,0.13,2.38,-125.0,-1.89
881,8041.0,-0.52,0.04,0.13,-5.07,-156.25,-1.89
882,8048.0,-0.54,0.04,0.09,-10.38,-171.88,-1.89
883,8057.0,-0.53,0.07,0.05,-14.16,-187.5,-1.89
884,8064.0,-0.52,0.1,0.02,-12.39,-203.12,-1.89
885,8074.0,-0.55,0.11,-0.08,-9.64,-218.75,-1.89
886,8080.0,-0.58,0.11,-0.21,-5.19,-234.38,-1.89
887,8086.0,-0.64,0.03,-0.47,1.53,-234.38,-1.89
888,8094.0,-0.69,-0.15,-0.86,15.56,-234.38,-1.89
889,8101.0,-0.72,-0.38,-1.24,34.18,-218.75,-1.89
890,8109.0,-0.79,-0.63,-1.57,57.43,-203.12,-1.89
891,8117.0,-0.99,-0.75,-1.75,85.82,-187.5,-1.89
892,8124.0,-1.37,-0.82,-1.86,112.98,-171.88,-1.89
893,8131.0,-1.76,-0.64,-1.73,125.12,-187.5,-1.89
894,8139.0,-2.04,-0.17,-1.24,125.61,-203.12,-1.89
895,8146.0,-1.76,0.05,-0.81,114.75,-250.0,-1.89
896,8154.0,-0.8,-0.17,-0.64,98.45,-281.25,-1.89
897,8169.0,1.08,-0.52,-1.39,7.87,-203.12,-1.89
898,8176.0,1.06,-0.63,-1.91,-24.35,-109.38,-1.89
899,8184.0,0.8,-0.81,-2.14,-31.68,-15.62,-1.89
900,8208.0,-0.78,-0.12,-2.1,-69.34,171.88,-1.95
901,8213.0,-0.92,-0.26,-1.95,-90.27,203.12,-1.95
902,8222.0,-1.11,-0.5,-1.75,-108.83,218.75,-1.95
903,8229.0,-1.23,-0.77,-1.56,-106.32,234.38,-1.95
904,8237.0,-1.23,-0.99,-1.32,-81.79,234.38,-1.95
905,8244.0,-1.07,-1.07,-1.13,-46.63,234.38,-1.95
906,8251.0,-0.86,-1.01,-0.95,-11.6,218.75,-1.95
907,8267.0,-0.84,-0.59,-0.71,26.06,218.75,-1.95
908,8274.0,-0.85,-0.42,-0.63,25.94,218.75,-1.95
909,8282.0,-0.85,-0.28,-0.53,17.09,218.75,-1.95
910,8289.0,-0.84,-0.2,-0.45,3.48,218.75,-1.95
911,8296.0,-0.82,-0.17,-0.37,-8.12,218.75,-1.95
912,8304.0,-0.75,-0.19,-0.28,-19.47,203.12,-1.95
913,8311.0,-0.68,-0.22,-0.19,-27.89,203.12,-1.95
914,8319.0,-0.62,-0.23,-0.1,-34.06,203.12,-1.95
915,8326.0,-0.58,-0.24,-0.01,-40.59,187.5,-1.95
916,8333.0,-0.57,-0.24,0.06,-46.94,171.88,-1.95
917,8341.0,-0.56,-0.23,0.12,-51.33,171.88,-1.95
918,8349.0,-0.55,-0.2,0.14,-53.59,156.25,-1.95
919,8356.0,-0.54,-0.17,0.13,-55.6,140.62,-1.95
920,8365.0,-0.51,-0.1,0.18,-57.86,125.0,-1.95
921,8372.0,-0.5,-0.04,0.22,-56.27,109.38,-1.95
922,8379.0,-0.49,0.05,0.27,-54.93,93.75,-1.95
923,8394.0,-0.43,0.13,0.16,-68.48,46.88,-1.95
924,8410.0,-0.32,0.07,-0.01,-78.86,15.62,-1.95
925,8416.0,-0.31,-0.01,-0.08,-73.18,0.0,-1.95
926,8424.0,-0.32,-0.05,-0.14,-62.44,-15.62,-1.95
927,8432.0,-0.34,-0.05,-0.15,-51.88,-31.25,-1.95
928,8439.0,-0.39,-0.02,-0.09,-44.13,-46.88,-1.95
929,8447.0,-0.48,0.05,0.02,-39.86,-62.5,-2.01
930,8454.0,-0.56,0.09,0.13,-40.95,-78.12,-2.01
931,8461.0,-0.63,0.13,0.21,-44.19,-93.75,-2.01
932,8469.0,-0.65,0.16,0.22,-45.35,-125.0,-2.01
933,8476.0,-0.64,0.15,0.18,-41.38,-140.62,-2.01
934,8486.0,-0.62,0.16,0.15,-32.1,-171.88,-2.01
935,8492.0,-0.62,0.17,0.1,-25.82,-187.5,-2.01
936,8506.0,-0.62,0.2,-0.02,-13.24,-203.12,-2.01
937,8514.0,-0.66,0.16,-0.15,-7.08,-203.12,-2.01
938,8521.0,-0.72,0.08,-0.37,-1.04,-218.75,-2.01
939,8529.0,-0.78,-0.08,-0.71,8.24,-218.75,-2.01
940,8537.0,-0.81,-0.26,-1.02,22.95,-218.75,-2.01
941,8544.0,-0.87,-0.5,-1.34,43.4,-203.12,-2.01
942,8551.0,-0.99,-0.67,-1.56,67.75,-187.5,-2.01
943,8559.0,-1.23,-0.79,-1.75,90.7,-171.88,-2.01
944,8566.0,-1.52,-0.7,-1.74,107.18,-156.25,-2.01
945,8574.0,-1.84,-0.36,-1.46,128.85,-171.88,-2.01
946,8582.0,-1.8,-0.23,-1.06,144.29,-203.12,-2.01
947,8588.0,-1.18,-0.44,-0.79,141.72,-234.38,-2.01
948,8597.0,-0.25,-0.65,-0.88,137.82,-234.38,-2.01
949,8604.0,0.28,-0.7,-1.19,110.9,-203.12,-2.01
950,8612.0,0.72,-0.57,-1.65,57.74,-140.62,-2.01
951,8619.0,0.8,-0.47,-1.88,-0.24,-78.12,-2.01
952,8626.0,0.46,-0.47,-1.92,-44.25,0.0,-2.01
953,8634.0,0.1,-0.48,-1.92,-70.01,78.12,-2.01
954,8641.0,-0.43,-0.52,-1.95,-83.86,125.0,-2.01
955,8649.0,-0.75,-0.52,-1.95,-91.8,171.88,-2.01
956,8657.0,-0.92,-0.55,-1.85,-99.79,187.5,-2.01
957,8664.0,-1.0,-0.6,-1.68,-101.44,203.12,-2.01
958,8671.0,-1.04,-0.69,-1.47,-96.19,218.75,-2.01
959,8679.0,-0.98,-0.78,-1.24,-80.75,218.75,-2.01
960,8686.0,-0.85,-0.87,-1.04,-59.02,218.75,-2.01
961,8694.0,-0.76,-0.86,-0.87,-31.92,218.75,-2.01
962,8702.0,-0.75,-0.74,-0.71,-7.87,218.75,-2.01
963,8708.0,-0.78,-0.57,-0.6,8.06,218.75,-2.08
964,8716.0,-0.8,-0.39,-0.48,13.06,218.75,-2.08
965,8724.0,-0.8,-0.28,-0.38,10.93,218.75,-2.08
966,8731.0,-0.78,-0.19,-0.28,5.25,203.12,-2.08
967,8739.0,-0.75,-0.14,-0.21,-0.79,203.12,-2.08
968,8747.0,-0.72,-0.09,-0.12,-5.86,203.12,-2.08
969,8754.0,-0.67,-0.07,-0.04,-11.17,187.5,-2.08
970,8761.0,-0.65,-0.05,0.02,-15.26,187.5,-2.08
971,8769.0,-0.64,-0.04,0.08,-19.23,171.88,-2.08
972,8777.0,-0.63,-0.01,0.14,-22.46,156.25,-2.08
973,8784.0,-0.61,0.01,0.2,-22.95,140.62,-2.08
974,8791.0,-0.61,0.03,0.25,-22.52,125.0,-2.08
975,8798.0,-0.6,0.08,0.28,-22.03,109.38,-2.08
976,8807.0,-0.59,0.13,0.31,-23.38,93.75,-2.08
977,8814.0,-0.57,0.17,0.28,-25.57,78.12,-2.08
978,8822.0,-0.52,0.16,0.22,-31.19,46.88,-2.08
979,8829.0,-0.49,0.11,0.12,-41.87,31.25,-2.08
980,8836.0,-0.43,0.03,0.03,-45.84,15.62,-2.08
981,8844.0,-0.38,-0.09,-0.1,-38.64,0.0,-2.08
982,8851.0,-0.32,-0.21,-0.2,-21.79,-15.62,-2.08
983,8859.0,-0.29,-0.28,-0.22,0.92,-31.25,-2.08
984,8867.0,-0.32,-0.25,-0.19,20.39,-46.88,-2.08
985,8874.0,-0.39,-0.15,-0.12,29.24,-62.5,-2.08
986,8882.0,-0.49,-0.02,-0.02,25.88,-78.12,-2.08
987,8898.0,-0.64,0.11,0.1,3.97,-125.0,-2.08
988,8904.0,-0.63,0.1,0.08,-0.06,-140.62,-2.08
989,8919.0,-0.55,0.07,-0.03,2.2,-171.88,-2.08
990,8926.0,-0.57,0.07,-0.11,5.37,-187.5,-2.08
991,8934.0,-0.63,0.07,-0.27,10.01,-187.5,-2.08
992,8941.0,-0.71,0.05,-0.41,14.28,-187.5,-2.08
993,8950.0,-0.8,-0.02,-0.66,19.35,-203.12,-2.08
994,8957.0,-0.87,-0.12,-0.88,25.02,-187.5,-2.08
995,8964.0,-0.93,-0.25,-1.1,31.98,-187.5,-2.14
996,8972.0,-1.05,-0.39,-1.36,43.64,-171.88,-2.14
997,8979.0,-1.22,-0.5,-1.55,60.49,-156.25,-2.14
998,8987.0,-1.49,-0.61,-1.61,75.38,-140.62,-2.14
999,8994.0,-1.83,-0.47,-1.33,78.37,-156.25,-2.14
1000,9001.0,-1.99,-0.17,-0.96,77.39,-203.12,-2.14
1001,9011.0,-1.21,-0.23,-0.62,72.39,-234.38,-2.14
1002,9016.0,-0.43,-0.56,-0.59,68.3,-234.38,-2.14
1003,9024.0,0.27,-0.9,-0.82,65.0,-218.75,-2.14
1004,9032.0,0.52,-0.82,-1.25,58.17,-171.88,-2.14
1005,9046.0,0.59,-0.64,-1.71,32.41,-15.62,-2.14
1006,9054.0,0.24,-0.37,-1.71,25.88,62.5,-2.14
1007,9061.0,-0.32,-0.27,-1.73,13.0,125.0,-2.14
1008,9069.0,-0.76,-0.25,-1.77,-4.21,171.88,-2.14
1009,9077.0,-0.93,-0.23,-1.72,-28.63,187.5,-2.14
1010,9084.0,-1.05,-0.28,-1.63,-58.41,203.12,-2.14
1011,9091.0,-1.13,-0.44,-1.46,-77.33,218.75,-2.14
1012,9099.0,-1.08,-0.67,-1.29,-78.92,218.75,-2.14
1013,9106.0,-1.0,-0.83,-1.11,-63.66,218.75,-2.14
1014,9114.0,-0.92,-0.86,-0.89,-36.25,203.12,-2.14
1015,9122.0,-0.89,-0.79,-0.74,-8.91,203.12,-2.14
1016,9129.0,-0.86,-0.63,-0.6,10.74,203.12,-2.14
1017,9136.0,-0.83,-0.49,-0.5,21.42,203.12,-2.14
1018,9144.0,-0.82,-0.38,-0.41,25.94,203.12,-2.14
1019,9151.0,-0.82,-0.3,-0.34,25.82,203.12,-2.14
1020,9159.0,-0.82,-0.22,-0.29,20.69,203.12,-2.14
1021,9168.0,-0.79,-0.13,-0.21,5.19,187.5,-2.14
1022,9173.0,-0.78,-0.12,-0.18,-6.04,187.5,-2.14
1023,9182.0,-0.74,-0.13,-0.13,-21.18,187.5,-2.14
1024,9189.0,-0.71,-0.17,-0.08,-31.98,171.88,-2.14
1025,9197.0,-0.69,-0.21,-0.01,-39.79,156.25,-2.14
1026,9204.0,-0.67,-0.21,0.05,-47.0,156.25,-2.14
1027,9211.0,-0.66,-0.18,0.11,-52.49,140.62,-2.14
1028,9227.0,-0.64,-0.1,0.2,-70.19,109.38,-2.2
1029,9235.0,-0.61,-0.08,0.22,-80.44,93.75,-2.2
1030,9242.0,-0.58,-0.09,0.2,-89.84,62.5,-2.2
1031,9249.0,-0.56,-0.13,0.18,-98.33,46.88,-2.2
1032,9259.0,-0.51,-0.18,0.11,-106.81,31.25,-2.2
1033,9266.0,-0.49,-0.18,0.02,-105.35,15.62,-2.2
1034,9271.0,-0.48,-0.19,-0.03,-100.52,0.0,-2.2
1035,9279.0,-0.45,-0.2,-0.12,-88.87,-15.62,-2.2
1036,9287.0,-0.44,-0.22,-0.15,-74.04,-31.25,-2.2
1037,9294.0,-0.44,-0.19,-0.12,-57.56,-46.88,-2.2
1038,9302.0,-0.49,-0.11,-0.05,-44.8,-62.5,-2.2
1039,9309.0,-0.54,-0.02,0.02,-39.0,-78.12,-2.2
1040,9316.0,-0.58,0.08,0.07,-37.54,-93.75,-2.2
1041,9325.0,-0.6,0.16,0.09,-38.45,-125.0,-2.2
1042,9332.0,-0.6,0.2,0.09,-39.61,-140.62,-2.2
1043,9339.0,-0.58,0.19,0.03,-39.98,-156.25,-2.2
1044,9346.0,-0.55,0.19,-0.02,-41.02,-171.88,-2.2
1045,9354.0,-0.53,0.18,-0.08,-39.06,-187.5,-2.2
1046,9362.0,-0.55,0.17,-0.14,-35.95,-187.5,-2.2
1047,9369.0,-0.59,0.16,-0.22,-29.54,-203.12,-2.2
1048,9376.0,-0.65,0.11,-0.36,-21.73,-203.12,-2.2
1049,9384.0,-0.71,0.02,-0.54,-11.72,-203.12,-2.2
1050,9391.0,-0.75,-0.12,-0.77,1.59,-203.12,-2.2
1051,9399.0,-0.79,-0.27,-1.01,18.62,-203.12,-2.2
1052,9407.0,-0.88,-0.46,-1.22,35.58,-187.5,-2.2
1053,9414.0,-1.01,-0.52,-1.33,47.55,-187.5,-2.2
1054,9421.0,-1.23,-0.45,-1.35,53.28,-187.5,-2.2
1055,9429.0,-1.4,-0.26,-1.2,54.26,-187.5,-2.2
1056,9436.0,-1.5,-0.07,-0.84,56.03,-203.12,-2.2
1057,9444.0,-1.27,-0.18,-0.55,64.39,-218.75,-2.2
1058,9452.0,-0.62,-0.51,-0.57,82.4,-218.75,-2.2
1059,9459.0,-0.1,-0.69,-0.85,110.84,-203.12,-2.2
1060,9466.0,0.09,-0.73,-1.28,133.18,-171.88,-2.2
1061,9474.0,0.24,-0.62,-1.57,139.28,-125.0,-2.26
1062,9481.0,0.16,-0.48,-1.7,128.6,-62.5,-2.26
1063,9497.0,-0.34,-0.4,-2.02,71.66,31.25,-2.26
1064,9504.0,-0.56,-0.39,-2.11,38.82,78.12,-2.26
1065,9511.0,-0.71,-0.42,-2.11,9.64,109.38,-2.26
1066,9519.0,-0.82,-0.49,-1.99,-13.61,140.62,-2.26
1067,9526.0,-0.9,-0.53,-1.8,-29.6,156.25,-2.26
1068,9535.0,-0.92,-0.52,-1.52,-40.77,156.25,-2.26
1069,9549.0,-0.77,-0.57,-1.06,-47.42,171.88,-2.26
1070,9557.0,-0.72,-0.61,-0.92,-43.4,171.88,-2.26
1071,9564.0,-0.72,-0.61,-0.79,-39.43,187.5,-2.26
1072,9572.0,-0.74,-0.59,-0.71,-36.8,187.5,-2.26
1073,9579.0,-0.76,-0.57,-0.62,-36.44,187.5,-2.26
1074,9586.0,-0.78,-0.55,-0.54,-35.95,187.5,-2.26
1075,9594.0,-0.78,-0.53,-0.49,-34.61,187.5,-2.26
1076,9601.0,-0.78,-0.52,-0.42,-31.01,187.5,-2.26
1077,9609.0,-0.76,-0.47,-0.37,-26.98,171.88,-2.26
1078,9625.0,-0.68,-0.35,-0.29,-21.67,171.88,-2.26
1079,9631.0,-0.65,-0.28,-0.27,-21.67,156.25,-2.26
1080,9639.0,-0.63,-0.22,-0.22,-24.17,156.25,-2.26
1081,9647.0,-0.62,-0.17,-0.18,-29.42,140.62,-2.26
1082,9654.0,-0.61,-0.14,-0.13,-35.34,125.0,-2.26
1083,9662.0,-0.58,-0.1,-0.08,-40.71,125.0,-2.26
1084,9669.0,-0.58,-0.08,-0.03,-44.68,109.38,-2.26
1085,9676.0,-0.57,-0.06,-0.01,-47.24,93.75,-2.26
1086,9684.0,-0.56,-0.04,-0.02,-50.72,93.75,-2.26
1087,9691.0,-0.53,-0.05,-0.03,-53.47,78.12,-2.26
1088,9700.0,-0.52,-0.06,-0.05,-55.54,62.5,-2.26
1089,9707.0,-0.5,-0.07,-0.07,-53.77,46.88,-2.26
1090,9714.0,-0.48,-0.08,-0.1,-49.01,31.25,-2.26
1091,9721.0,-0.47,-0.09,-0.11,-41.14,31.25,-2.26
1092,9731.0,-0.47,-0.12,-0.09,-27.22,0.0,-2.32
1093,9737.0,-0.47,-0.11,-0.06,-20.02,0.0,-2.32
1094,9745.0,-0.49,-0.1,-0.03,-12.76,-31.25,-2.32
1095,9751.0,-0.49,-0.07,0.0,-9.83,-46.88,-2.32
1096,9759.0,-0.5,-0.01,0.02,-11.23,-62.5,-2.32
1097,9766.0,-0.5,0.03,-0.0,-15.08,-78.12,-2.32
1098,9774.0,-0.51,0.05,-0.03,-19.47,-93.75,-2.32
1099,9782.0,-0.51,0.04,-0.07,-22.52,-109.38,-2.32
1100,9789.0,-0.51,0.01,-0.11,-20.81,-109.38,-2.32
1101,9796.0,-0.51,-0.02,-0.17,-13.61,-125.0,-2.32
1102,9804.0,-0.53,-0.08,-0.24,-6.47,-140.62,-2.32
1103,9811.0,-0.56,-0.09,-0.29,0.73,-140.62,-2.32
1104,9819.0,-0.62,-0.08,-0.38,5.98,-156.25,-2.32
1105,9827.0,-0.68,-0.09,-0.51,9.4,-156.25,-2.32
1106,9833.0,-0.72,-0.15,-0.64,11.84,-156.25,-2.32
1107,9841.0,-0.76,-0.25,-0.75,16.36,-156.25,-2.32
1108,9849.0,-0.83,-0.35,-0.89,24.48,-156.25,-2.32
1109,9856.0,-0.93,-0.43,-1.01,36.32,-156.25,-2.32
1110,9864.0,-1.07,-0.5,-1.13,50.9,-140.62,-2.32
1111,9872.0,-1.19,-0.56,-1.2,66.47,-140.62,-2.32
1112,9879.0,-1.38,-0.56,-1.19,82.52,-140.62,-2.32
1113,9886.0,-1.57,-0.46,-1.05,92.96,-156.25,-2.32
1114,9894.0,-1.63,-0.28,-0.78,91.92,-187.5,-2.32
1115,9901.0,-1.28,-0.1,-0.56,83.98,-218.75,-2.32
1116,9910.0,-0.53,-0.22,-0.44,70.25,-234.38,-2.32
1117,9916.0,0.16,-0.55,-0.57,46.69,-203.12,-2.32
1118,9924.0,0.48,-0.76,-0.84,34.06,-156.25,-2.32
1119,9931.0,0.46,-0.84,-1.23,35.16,-109.38,-2.32
1120,9939.0,0.35,-0.84,-1.59,42.85,-46.88,-2.32
1121,9947.0,-0.0,-0.57,-1.67,53.83,15.62,-2.32
1122,9955.0,-0.46,-0.28,-1.73,46.88,62.5,-2.32
1123,9961.0,-0.69,-0.15,-1.8,25.82,93.75,-2.32
1124,9969.0,-0.85,-0.11,-1.84,-9.16,109.38,-2.32
1125,9976.0,-0.94,-0.22,-1.79,-47.06,140.62,-2.32
1126,9984.0,-0.96,-0.44,-1.67,-70.8,156.25,-2.38
1127,9992.0,-0.92,-0.6,-1.47,-80.14,156.25,-2.38
1128,9999.0,-0.86,-0.69,-1.31,-73.85,171.88,-2.38
1129,10006.0,-0.8,-0.74,-1.14,-58.65,171.88,-2.38
1130,10014.0,-0.76,-0.75,-1.0,-39.55,171.88,-2.38
1131,10022.0,-0.79,-0.67,-0.86,-20.57,171.88,-2.38
1132,10029.0,-0.81,-0.51,-0.75,-9.52,171.88,-2.38
1133,10037.0,-0.8,-0.38,-0.67,-3.11,171.88,-2.38
1134,10044.0,-0.79,-0.31,-0.59,-1.83,171.88,-2.38
1135,10051.0,-0.77,-0.28,-0.54,-2.5,171.88,-2.38
1136,10059.0,-0.74,-0.28,-0.48,-3.23,171.88,-2.38
1137,10066.0,-0.71,-0.3,-0.44,-4.94,156.25,-2.38
1138,10075.0,-0.68,-0.3,-0.37,-9.58,156.25,-2.38
1139,10082.0,-0.66,-0.28,-0.32,-15.26,156.25,-2.38
1140,10089.0,-0.63,-0.27,-0.26,-20.08,140.62,-2.38
1141,10096.0,-0.64,-0.26,-0.21,-23.68,140.62,-2.38
1142,10104.0,-0.64,-0.25,-0.17,-23.99,125.0,-2.38
1143,10112.0,-0.64,-0.23,-0.15,-23.62,125.0,-2.38
1144,10119.0,-0.63,-0.19,-0.14,-22.77,109.38,-2.38
1145,10126.0,-0.62,-0.15,-0.13,-22.09,109.38,-2.38
1146,10134.0,-0.61,-0.12,-0.13,-23.86,93.75,-2.38
1147,10141.0,-0.59,-0.1,-0.13,-29.11,78.12,-2.38
1148,10149.0,-0.57,-0.09,-0.13,-35.4,78.12,-2.38
1149,10157.0,-0.55,-0.1,-0.13,-39.61,62.5,-2.38
1150,10164.0,-0.54,-0.12,-0.13,-38.57,46.88,-2.38
1151,10171.0,-0.53,-0.14,-0.16,-33.57,46.88,-2.38
1152,10179.0,-0.53,-0.14,-0.22,-27.47,31.25,-2.38
1153,10187.0,-0.52,-0.16,-0.22,-20.87,15.62,-2.38
1154,10194.0,-0.52,-0.16,-0.19,-15.93,15.62,-2.38
1155,10203.0,-0.54,-0.16,-0.16,-10.56,0.0,-2.38
1156,10208.0,-0.57,-0.17,-0.12,-7.02,-15.62,-2.38
1157,10216.0,-0.6,-0.17,-0.1,-4.03,-31.25,-2.38
1158,10224.0,-0.61,-0.15,-0.09,-2.38,-46.88,-2.38
1159,10232.0,-0.62,-0.12,-0.09,-2.75,-46.88,-2.38
1160,10240.0,-0.63,-0.08,-0.11,-3.97,-62.5,-2.44
1161,10247.0,-0.64,-0.07,-0.16,-5.68,-78.12,-2.44
1162,10254.0,-0.64,-0.07,-0.22,-6.16,-93.75,-2.44
1163,10261.0,-0.65,-0.07,-0.26,-3.42,-93.75,-2.44
1164,10269.0,-0.66,-0.07,-0.31,0.06,-109.38,-2.44
1165,10276.0,-0.68,-0.08,-0.34,3.05,-109.38,-2.44
1166,10285.0,-0.68,-0.09,-0.38,5.25,-109.38,-2.44
1167,10291.0,-0.69,-0.1,-0.42,5.98,-125.0,-2.44
1168,10299.0,-0.71,-0.11,-0.45,6.35,-125.0,-2.44
1169,10306.0,-0.72,-0.11,-0.47,6.9,-125.0,-2.44
1170,10314.0,-0.76,-0.08,-0.51,7.14,-125.0,-2.44
1171,10330.0,-0.86,-0.02,-0.67,7.2,-140.62,-2.44
1172,10336.0,-0.92,-0.04,-0.77,3.78,-140.62,-2.44
1173,10344.0,-0.97,-0.07,-0.89,0.85,-125.0,-2.44
1174,10351.0,-1.04,-0.19,-1.03,0.0,-125.0,-2.44
1175,10359.0,-1.1,-0.37,-1.12,7.2,-125.0,-2.44
1176,10367.0,-1.21,-0.58,-1.12,23.32,-125.0,-2.44
1177,10374.0,-1.35,-0.7,-1.04,44.25,-125.0,-2.44
1178,10381.0,-1.4,-0.7,-0.81,64.15,-156.25,-2.44
1179,10389.0,-1.14,-0.64,-0.66,84.47,-187.5,-2.44
1180,10397.0,-0.57,-0.72,-0.62,104.31,-187.5,-2.44
1181,10404.0,-0.06,-0.86,-0.76,106.99,-187.5,-2.44
1182,10412.0,0.17,-0.87,-0.99,92.71,-140.62,-2.44
1183,10418.0,0.2,-0.88,-1.34,71.96,-93.75,-2.44
1184,10427.0,0.14,-0.81,-1.66,52.19,-46.88,-2.44
1185,10434.0,0.06,-0.64,-1.77,37.72,0.0,-2.44
1186,10441.0,-0.05,-0.51,-1.79,21.97,46.88,-2.44
1187,10450.0,-0.28,-0.37,-1.75,2.75,78.12,-2.44
1188,10457.0,-0.45,-0.27,-1.68,-20.45,109.38,-2.44
1189,10464.0,-0.55,-0.26,-1.57,-48.77,140.62,-2.44
1190,10471.0,-0.64,-0.35,-1.41,-72.33,171.88,-2.44
1191,10479.0,-0.7,-0.49,-1.3,-84.72,187.5,-2.44
1192,10487.0,-0.74,-0.65,-1.19,-83.74,203.12,-2.44
1193,10494.0,-0.77,-0.77,-1.05,-67.69,203.12,-2.5
1194,10501.0,-0.8,-0.8,-0.92,-43.76,203.12,-2.5
1195,10509.0,-0.81,-0.76,-0.84,-16.42,187.5,-2.5
1196,10516.0,-0.8,-0.67,-0.79,3.66,187.5,-2.5
1197,10524.0,-0.79,-0.54,-0.71,15.99,187.5,-2.5
1198,10532.0,-0.78,-0.43,-0.64,19.84,187.5,-2.5
1199,10539.0,-0.78,-0.35,-0.56,17.7,187.5,-2.5
1200,10546.0,-0.77,-0.29,-0.49,12.82,187.5,-2.5
1201,10554.0,-0.76,-0.25,-0.43,7.51,187.5,-2.5
1202,10562.0,-0.74,-0.22,-0.36,3.48,187.5,-2.5
1203,10569.0,-0.72,-0.2,-0.3,0.79,171.88,-2.5
1204,10577.0,-0.71,-0.18,-0.23,1.53,171.88,-2.5
1205,10584.0,-0.72,-0.16,-0.18,1.65,171.88,-2.5
1206,10591.0,-0.71,-0.12,-0.15,1.16,156.25,-2.5
1207,10599.0,-0.7,-0.09,-0.1,-0.98,140.62,-2.5
1208,10607.0,-0.7,-0.04,-0.05,-5.0,140.62,-2.5
1209,10614.0,-0.69,-0.01,-0.02,-8.73,125.0,-2.5
1210,10629.0,-0.61,-0.0,-0.06,-8.73,93.75,-2.5
1211,10637.0,-0.56,-0.03,-0.1,-5.8,78.12,-2.5
1212,10644.0,-0.53,-0.04,-0.12,1.71,78.12,-2.5
1213,10659.0,-0.5,-0.05,-0.06,21.55,46.88,-2.5
1214,10666.0,-0.52,-0.06,0.01,30.76,31.25,-2.5
1215,10674.0,-0.54,-0.09,0.06,38.02,15.62,-2.5
1216,10681.0,-0.55,-0.13,0.11,43.21,-15.62,-2.5
1217,10689.0,-0.56,-0.14,0.15,44.98,-31.25,-2.5
1218,10697.0,-0.56,-0.13,0.17,43.03,-62.5,-2.5
1219,10711.0,-0.57,-0.1,0.12,35.77,-93.75,-2.5
1220,10719.0,-0.56,-0.11,0.07,31.92,-109.38,-2.5
1221,10726.0,-0.55,-0.12,0.05,28.69,-125.0,-2.5
1222,10736.0,-0.57,-0.11,-0.04,26.31,-140.62,-2.5
1223,10750.0,-0.67,-0.13,-0.25,24.35,-156.25,-2.5
1224,10756.0,-0.73,-0.19,-0.41,24.29,-171.88,-2.56
1225,10764.0,-0.78,-0.27,-0.57,24.6,-171.88,-2.56
1226,10772.0,-0.85,-0.37,-0.75,25.57,-171.88,-2.56
1227,10779.0,-0.95,-0.44,-0.89,31.68,-156.25,-2.56
1228,10787.0,-1.1,-0.5,-1.06,45.04,-156.25,-2.56
1229,10793.0,-1.25,-0.54,-1.2,61.22,-156.25,-2.56
1230,10802.0,-1.49,-0.45,-1.23,78.06,-140.62,-2.56
1231,10809.0,-1.7,-0.17,-1.06,90.88,-171.88,-2.56
1232,10817.0,-1.6,0.04,-0.87,94.97,-203.12,-2.56
1233,10824.0,-1.02,-0.1,-0.67,75.01,-218.75,-2.56
1234,10832.0,-0.22,-0.39,-0.73,38.09,-218.75,-2.56
1235,10839.0,0.23,-0.54,-0.93,-17.21,-171.88,-2.56
1236,10846.0,0.41,-0.67,-1.34,-55.42,-125.0,-2.56
1237,10854.0,0.47,-0.65,-1.46,-70.74,-46.88,-2.56
1238,10862.0,0.1,-0.61,-1.46,-70.19,15.62,-2.56
1239,10869.0,-0.41,-0.55,-1.45,-58.72,78.12,-2.56
1240,10876.0,-0.88,-0.38,-1.51,-49.19,109.38,-2.56
1241,10892.0,-1.22,-0.21,-1.52,-60.91,140.62,-2.56
1242,10899.0,-1.18,-0.31,-1.45,-69.52,156.25,-2.56
1243,10907.0,-1.1,-0.48,-1.33,-69.76,171.88,-2.56
1244,10915.0,-1.02,-0.59,-1.19,-57.37,187.5,-2.56
1245,10921.0,-0.92,-0.66,-1.01,-36.87,171.88,-2.56
1246,10929.0,-0.84,-0.67,-0.84,-10.38,171.88,-2.56
1247,10937.0,-0.8,-0.59,-0.7,11.41,171.88,-2.56
1248,10944.0,-0.78,-0.47,-0.58,24.72,171.88,-2.56
1249,10952.0,-0.78,-0.32,-0.48,32.23,171.88,-2.56
1250,10966.0,-0.81,-0.14,-0.38,33.26,171.88,-2.56
1251,10974.0,-0.8,-0.08,-0.35,29.54,171.88,-2.56
1252,10982.0,-0.79,-0.02,-0.33,22.77,156.25,-2.56
1253,10989.0,-0.76,0.0,-0.33,12.82,156.25,-2.56
1254,10997.0,-0.72,0.0,-0.31,1.1,156.25,-2.56
1255,11003.0,-0.7,-0.03,-0.3,-9.77,156.25,-2.56
1256,11012.0,-0.7,-0.07,-0.24,-17.52,140.62,-2.62
1257,11019.0,-0.7,-0.11,-0.18,-21.06,140.62,-2.62
1258,11027.0,-0.71,-0.11,-0.12,-21.85,125.0,-2.62
1259,11035.0,-0.71,-0.1,-0.07,-19.9,109.38,-2.62
1260,11042.0,-0.7,-0.09,0.0,-18.19,109.38,-2.62
1261,11049.0,-0.68,-0.07,0.07,-17.52,93.75,-2.62
1262,11056.0,-0.66,-0.05,0.1,-16.24,78.12,-2.62
1263,11064.0,-0.63,-0.01,0.12,-13.61,78.12,-2.62
1264,11072.0,-0.61,0.01,0.11,-10.93,62.5,-2.62
1265,11086.0,-0.58,0.04,0.01,-7.75,46.88,-2.62
1266,11094.0,-0.58,0.04,-0.04,-3.36,31.25,-2.62
1267,11109.0,-0.58,0.01,-0.04,15.14,15.62,-2.62
1268,11117.0,-0.58,0.02,-0.05,20.81,0.0,-2.62
1269,11125.0,-0.56,0.04,-0.06,21.06,-15.62,-2.62
1270,11131.0,-0.53,0.03,-0.05,19.1,-31.25,-2.62
1271,11141.0,-0.52,-0.02,-0.05,16.85,-46.88,-2.62
1272,11147.0,-0.52,-0.05,-0.05,16.66,-46.88,-2.62
1273,11154.0,-0.53,-0.07,-0.06,17.7,-62.5,-2.62
1274,11162.0,-0.56,-0.08,-0.08,19.29,-78.12,-2.62
1275,11168.0,-0.58,-0.06,-0.13,19.96,-93.75,-2.62
1276,11177.0,-0.59,-0.04,-0.18,18.25,-109.38,-2.62
1277,11200.0,-0.66,-0.04,-0.2,13.73,-140.62,-2.62
1278,11207.0,-0.71,-0.05,-0.27,11.72,-140.62,-2.62
1279,11214.0,-0.78,-0.1,-0.37,7.2,-156.25,-2.62
1280,11221.0,-0.86,-0.18,-0.5,3.23,-156.25,-2.62
1281,11231.0,-0.97,-0.33,-0.69,3.3,-156.25,-2.62
1282,11237.0,-1.04,-0.43,-0.8,6.23,-156.25,-2.62
1283,11244.0,-1.17,-0.57,-0.93,15.32,-156.25,-2.62
1284,11251.0,-1.31,-0.61,-1.0,25.33,-140.62,-2.62
1285,11259.0,-1.44,-0.46,-1.01,40.41,-140.62,-2.62
1286,11266.0,-1.5,-0.22,-0.99,57.92,-156.25,-2.69
1287,11274.0,-1.55,-0.21,-0.89,75.5,-156.25,-2.69
1288,11282.0,-1.49,-0.41,-0.66,84.35,-187.5,-2.69
1289,11290.0,-0.9,-0.56,-0.49,91.31,-218.75,-2.69
1290,11296.0,-0.36,-0.58,-0.59,79.28,-203.12,-2.69
1291,11304.0,-0.01,-0.47,-0.88,26.79,-187.5,-2.69
1292,11311.0,0.15,-0.37,-1.09,-33.26,-140.62,-2.69
1293,11327.0,-0.09,-0.77,-1.34,-99.73,0.0,-2.69
1294,11333.0,-0.48,-0.77,-1.42,-95.15,46.88,-2.69
1295,11342.0,-0.95,-0.55,-1.5,-86.98,78.12,-2.69
1296,11349.0,-1.19,-0.35,-1.57,-84.05,93.75,-2.69
1297,11357.0,-1.24,-0.25,-1.57,-88.93,93.75,-2.69
1298,11364.0,-1.2,-0.26,-1.52,-98.75,109.38,-2.69
1299,11372.0,-1.12,-0.35,-1.4,-102.91,140.62,-2.69
1300,11378.0,-1.05,-0.45,-1.25,-96.07,140.62,-2.69
1301,11387.0,-0.97,-0.51,-1.07,-76.84,140.62,-2.69
1302,11394.0,-0.92,-0.51,-0.91,-55.36,140.62,-2.69
1303,11402.0,-0.89,-0.46,-0.79,-34.85,140.62,-2.69
1304,11409.0,-0.87,-0.4,-0.68,-19.53,156.25,-2.69
1305,11416.0,-0.85,-0.32,-0.56,-8.79,156.25,-2.69
1306,11432.0,-0.81,-0.22,-0.37,7.39,140.62,-2.69
1307,11439.0,-0.79,-0.17,-0.31,13.0,140.62,-2.69
1308,11447.0,-0.78,-0.12,-0.28,15.87,140.62,-2.69
1309,11454.0,-0.76,-0.07,-0.26,15.5,140.62,-2.69
1310,11461.0,-0.75,-0.04,-0.25,11.66,140.62,-2.69
1311,11469.0,-0.72,0.0,-0.25,5.43,125.0,-2.69
1312,11476.0,-0.71,0.03,-0.24,-0.24,125.0,-2.69
1313,11484.0,-0.73,0.04,-0.23,-5.55,125.0,-2.69
1314,11493.0,-0.7,0.05,-0.23,-10.62,109.38,-2.69
1315,11506.0,-0.67,0.05,-0.14,-18.31,93.75,-2.69
1316,11514.0,-0.66,0.05,-0.11,-20.69,78.12,-2.69
1317,11522.0,-0.64,0.04,-0.15,-22.28,78.12,-2.75
1318,11529.0,-0.6,0.02,-0.22,-24.6,62.5,-2.75
1319,11537.0,-0.55,-0.01,-0.24,-19.53,62.5,-2.75
1320,11543.0,-0.53,-0.03,-0.25,-6.1,46.88,-2.75
1321,11552.0,-0.54,-0.05,-0.27,10.56,31.25,-2.75
1322,11559.0,-0.55,-0.05,-0.24,24.05,31.25,-2.75
1323,11568.0,-0.56,-0.03,-0.17,35.83,15.62,-2.75
1324,11574.0,-0.58,-0.01,-0.07,41.63,0.0,-2.75
1325,11582.0,-0.6,0.03,0.02,42.42,-15.62,-2.75
1326,11589.0,-0.62,0.06,0.1,38.76,-31.25,-2.75
1327,11596.0,-0.63,0.1,0.12,32.59,-46.88,-2.75
1328,11604.0,-0.63,0.11,0.06,26.79,-62.5,-2.75
1329,11627.0,-0.62,-0.01,-0.16,14.83,-109.38,-2.75
1330,11634.0,-0.68,-0.03,-0.25,12.51,-125.0,-2.75
1331,11641.0,-0.74,-0.05,-0.34,6.65,-125.0,-2.75
1332,11649.0,-0.83,-0.12,-0.44,1.53,-140.62,-2.75
1333,11657.0,-0.91,-0.22,-0.58,-0.61,-140.62,-2.75
1334,11665.0,-1.01,-0.32,-0.73,2.93,-140.62,-2.75
1335,11671.0,-1.13,-0.37,-0.84,9.03,-140.62,-2.75
1336,11679.0,-1.31,-0.4,-0.96,20.2,-140.62,-2.75
1337,11686.0,-1.49,-0.39,-1.01,34.67,-140.62,-2.75
1338,11694.0,-1.68,-0.27,-1.01,56.03,-140.62,-2.75
1339,11702.0,-1.76,-0.12,-0.96,81.3,-156.25,-2.75
1340,11709.0,-1.66,-0.02,-0.73,103.03,-187.5,-2.75
1341,11716.0,-1.19,-0.13,-0.45,106.02,-218.75,-2.75
1342,11724.0,-0.39,-0.35,-0.41,74.95,-234.38,-2.75
1343,11732.0,0.15,-0.4,-0.51,-9.09,-203.12,-2.75
1344,11739.0,0.36,-0.5,-0.97,-69.46,-156.25,-2.75
1345,11747.0,0.47,-0.67,-1.28,-97.9,-78.12,-2.75
1346,11753.0,0.2,-0.76,-1.34,-92.83,0.0,-2.75
1347,11762.0,-0.33,-0.69,-1.27,-65.86,62.5,-2.75
1348,11769.0,-0.87,-0.37,-1.27,-43.03,93.75,-2.75
1349,11777.0,-1.13,-0.07,-1.31,-38.15,109.38,-2.81
1350,11784.0,-1.16,-0.02,-1.29,-50.9,125.0,-2.81
1351,11791.0,-1.11,-0.12,-1.24,-68.48,140.62,-2.81
1352,11799.0,-1.0,-0.31,-1.11,-75.62,156.25,-2.81
1353,11807.0,-0.93,-0.43,-0.94,-69.46,171.88,-2.81
1354,11814.0,-0.9,-0.46,-0.77,-55.66,171.88,-2.81
1355,11822.0,-0.88,-0.44,-0.61,-37.05,156.25,-2.81
1356,11829.0,-0.87,-0.37,-0.44,-17.4,156.25,-2.81
1357,11837.0,-0.86,-0.26,-0.31,3.17,156.25,-2.81
1358,11844.0,-0.85,-0.18,-0.21,13.55,140.62,-2.81
1359,11851.0,-0.83,-0.11,-0.14,24.78,140.62,-2.81
1360,11859.0,-0.81,-0.04,-0.08,34.48,125.0,-2.81
1361,11867.0,-0.77,0.0,-0.07,40.04,125.0,-2.81
1362,11875.0,-0.74,0.06,-0.1,40.28,109.38,-2.81
1363,11881.0,-0.72,0.14,-0.14,36.68,109.38,-2.81
1364,11889.0,-0.69,0.17,-0.23,31.01,93.75,-2.81
1365,11896.0,-0.66,0.15,-0.26,29.97,93.75,-2.81
1366,11905.0,-0.63,0.09,-0.31,42.11,78.12,-2.81
1367,11912.0,-0.6,0.04,-0.39,54.87,62.5,-2.81
1368,11918.0,-0.55,0.04,-0.38,63.17,46.88,-2.81
1369,11928.0,-0.52,0.02,-0.26,65.67,31.25,-2.81
1370,11934.0,-0.53,0.0,-0.19,61.34,15.62,-2.81
1371,11942.0,-0.53,-0.01,-0.11,49.44,0.0,-2.81
1372,11949.0,-0.55,-0.02,0.01,33.75,-15.62,-2.81
1373,11957.0,-0.57,-0.05,0.11,17.76,-31.25,-2.81
1374,11964.0,-0.56,-0.09,0.16,7.32,-46.88,-2.81
1375,11971.0,-0.57,-0.11,0.16,2.62,-78.12,-2.81
1376,11979.0,-0.56,-0.12,0.18,2.87,-93.75,-2.81
1377,11987.0,-0.58,-0.09,0.17,3.54,-109.38,-2.81
1378,11994.0,-0.6,-0.05,0.11,4.64,-125.0,-2.81
1379,12001.0,-0.62,-0.04,-0.02,3.78,-140.62,-2.81
1380,12017.0,-0.66,-0.09,-0.33,4.52,-171.88,-2.81
1381,12024.0,-0.71,-0.15,-0.5,8.54,-171.88,-2.81
1382,12032.0,-0.78,-0.21,-0.68,13.24,-171.88,-2.87
1383,12040.0,-0.88,-0.27,-0.93,17.64,-171.88,-2.87
1384,12046.0,-0.97,-0.36,-1.21,22.34,-156.25,-2.87
1385,12054.0,-1.09,-0.51,-1.49,23.13,-156.25,-2.87
1386,12070.0,-1.48,-0.67,-1.63,38.33,-125.0,-2.87
1387,12077.0,-1.73,-0.58,-1.42,58.96,-140.62,-2.87
1388,12084.0,-1.63,-0.46,-1.0,80.75,-187.5,-2.87
1389,12091.0,-0.93,-0.53,-0.74,93.81,-218.75,-2.87
1390,12099.0,-0.11,-0.75,-0.74,78.31,-218.75,-2.87
1391,12106.0,0.26,-0.75,-0.75,19.41,-203.12,-2.87
1392,12115.0,0.65,-0.62,-1.44,-36.93,-125.0,-2.87
1393,12122.0,0.92,-0.58,-1.64,-90.52,-46.88,-2.87
1394,12129.0,0.61,-0.46,-1.61,-98.39,31.25,-2.87
1395,12137.0,0.03,-0.4,-1.42,-102.29,109.38,-2.87
1396,12144.0,-0.59,-0.35,-1.38,-98.33,156.25,-2.87
1397,12152.0,-0.84,-0.4,-1.29,-91.86,187.5,-2.87
1398,12159.0,-0.99,-0.47,-1.22,-96.25,203.12,-2.87
1399,12166.0,-1.11,-0.61,-1.16,-102.97,203.12,-2.87
1400,12174.0,-1.15,-0.76,-1.09,-99.0,218.75,-2.87
1401,12181.0,-1.13,-0.85,-0.96,-79.47,218.75,-2.87
1402,12189.0,-1.02,-0.88,-0.85,-51.33,203.12,-2.87
1403,12197.0,-0.97,-0.8,-0.73,-14.77,187.5,-2.87
1404,12204.0,-0.97,-0.64,-0.62,18.07,187.5,-2.87
1405,12211.0,-0.95,-0.42,-0.5,38.94,171.88,-2.87
1406,12219.0,-0.89,-0.25,-0.41,45.17,171.88,-2.87
1407,12226.0,-0.84,-0.12,-0.34,42.3,156.25,-2.87
1408,12234.0,-0.81,-0.02,-0.26,33.51,156.25,-2.87
1409,12242.0,-0.8,0.02,-0.21,22.64,156.25,-2.87
1410,12250.0,-0.78,0.02,-0.17,12.57,156.25,-2.87
1411,12256.0,-0.77,0.0,-0.13,4.82,156.25,-2.87
1412,12264.0,-0.76,-0.01,-0.09,-0.18,140.62,-2.87
1413,12271.0,-0.73,-0.01,-0.07,-0.06,125.0,-2.87
1414,12280.0,-0.72,-0.01,-0.03,2.69,125.0,-2.87
1415,12287.0,-0.7,0.0,-0.02,6.04,109.38,-2.93
1416,12294.0,-0.66,0.04,-0.06,12.21,93.75,-2.93
1417,12301.0,-0.62,0.07,-0.1,16.24,78.12,-2.93
1418,12309.0,-0.57,0.12,-0.11,21.18,78.12,-2.93
1419,12318.0,-0.53,0.17,-0.14,26.61,62.5,-2.93
1420,12324.0,-0.5,0.19,-0.21,29.54,46.88,-2.93
1421,12339.0,-0.44,0.06,-0.19,31.98,15.62,-2.93
1422,12346.0,-0.44,-0.08,-0.11,36.68,0.0,-2.93
1423,12354.0,-0.45,-0.18,-0.04,44.13,-15.62,-2.93
1424,12362.0,-0.5,-0.25,0.05,52.06,-31.25,-2.93
1425,12369.0,-0.56,-0.25,0.12,54.93,-62.5,-2.93
1426,12376.0,-0.6,-0.23,0.18,52.98,-78.12,-2.93
1427,12384.0,-0.61,-0.19,0.16,46.2,-109.38,-2.93
1428,12391.0,-0.59,-0.15,0.07,36.62,-125.0,-2.93
1429,12399.0,-0.56,-0.14,-0.02,26.06,-140.62,-2.93
1430,12407.0,-0.55,-0.11,-0.09,14.47,-156.25,-2.93
1431,12415.0,-0.59,-0.07,-0.15,3.11,-171.88,-2.93
1432,12421.0,-0.69,-0.03,-0.26,-2.62,-171.88,-2.93
1433,12429.0,-0.78,-0.09,-0.44,-6.16,-187.5,-2.93
1434,12436.0,-0.82,-0.19,-0.65,-3.91,-187.5,-2.93
1435,12444.0,-0.83,-0.33,-0.9,9.16,-187.5,-2.93
1436,12452.0,-0.9,-0.52,-1.11,27.89,-171.88,-2.93
1437,12459.0,-1.02,-0.61,-1.29,45.04,-156.25,-2.93
1438,12466.0,-1.17,-0.64,-1.47,65.0,-140.62,-2.93
1439,12474.0,-1.35,-0.63,-1.6,78.92,-125.0,-2.93
1440,12481.0,-1.58,-0.47,-1.49,80.02,-125.0,-2.93
1441,12490.0,-1.95,0.01,-0.99,74.34,-140.62,-2.93
1442,12497.0,-1.9,0.33,-0.48,82.52,-187.5,-2.93
1443,12504.0,-1.14,-0.25,-0.29,66.04,-234.38,-2.93
1444,12511.0,-0.02,-0.98,-0.53,58.17,-234.38,-2.93
1445,12519.0,0.4,-1.07,-0.82,32.23,-203.12,-2.93
1446,12527.0,0.68,-0.73,-1.29,-25.21,-140.62,-2.93
1447,12534.0,0.61,-0.58,-1.52,-73.0,-78.12,-2.93
1448,12541.0,0.57,-0.5,-1.64,-98.94,15.62,-2.93
1449,12549.0,-0.02,-0.38,-1.6,-104.43,93.75,-2.99
1450,12558.0,-0.64,-0.25,-1.55,-99.67,140.62,-2.99
1451,12564.0,-0.79,-0.24,-1.51,-98.75,171.88,-2.99
1452,12572.0,-0.88,-0.25,-1.42,-104.06,187.5,-2.99
1453,12579.0,-0.94,-0.32,-1.33,-117.55,203.12,-2.99
1454,12586.0,-1.01,-0.46,-1.2,-122.86,218.75,-2.99
1455,12594.0,-1.0,-0.62,-1.1,-108.4,218.75,-2.99
1456,12602.0,-0.95,-0.74,-0.95,-77.39,203.12,-2.99
1457,12609.0,-0.92,-0.73,-0.84,-39.61,203.12,-2.99
1458,12617.0,-0.9,-0.62,-0.73,-5.31,187.5,-2.99
1459,12625.0,-0.88,-0.39,-0.6,18.01,187.5,-2.99
1460,12631.0,-0.85,-0.21,-0.51,27.77,171.88,-2.99
1461,12639.0,-0.82,-0.07,-0.41,25.27,171.88,-2.99
1462,12646.0,-0.8,-0.0,-0.36,15.44,171.88,-2.99
1463,12655.0,-0.78,0.03,-0.29,1.89,171.88,-2.99
1464,12662.0,-0.77,0.02,-0.22,-9.16,171.88,-2.99
1465,12669.0,-0.76,-0.0,-0.19,-18.49,156.25,-2.99
1466,12676.0,-0.74,-0.03,-0.13,-24.11,156.25,-2.99
1467,12684.0,-0.73,-0.04,-0.09,-25.51,140.62,-2.99
1468,12692.0,-0.72,-0.04,-0.07,-21.12,125.0,-2.99
1469,12699.0,-0.71,-0.02,-0.11,-15.5,109.38,-2.99
1470,12707.0,-0.68,0.0,-0.15,-12.63,109.38,-2.99
1471,12714.0,-0.65,0.02,-0.13,-8.61,93.75,-2.99
1472,12721.0,-0.63,0.04,-0.07,0.18,78.12,-2.99
1473,12729.0,-0.62,0.06,-0.01,10.01,78.12,-2.99
1474,12737.0,-0.63,0.06,0.03,19.59,62.5,-2.99
1475,12744.0,-0.63,0.05,0.04,23.56,46.88,-2.99
1476,12751.0,-0.62,0.03,0.02,24.54,31.25,-2.99
1477,12759.0,-0.61,0.01,0.01,24.05,15.62,-2.99
1478,12766.0,-0.59,-0.0,0.01,21.42,0.0,-2.99
1479,12774.0,-0.57,-0.03,0.02,21.61,-15.62,-2.99
1480,12782.0,-0.58,-0.07,0.03,23.62,-31.25,-2.99
1481,12789.0,-0.6,-0.08,0.03,24.29,-46.88,-2.99
1482,12796.0,-0.61,-0.07,0.03,22.83,-62.5,-2.99
1483,12804.0,-0.63,-0.06,0.04,19.59,-78.12,-3.05
1484,12811.0,-0.64,-0.06,0.02,15.26,-93.75,-3.05
1485,12820.0,-0.62,-0.06,0.02,11.6,-109.38,-3.05
1486,12827.0,-0.61,-0.06,-0.04,10.44,-125.0,-3.05
1487,12834.0,-0.61,-0.06,-0.09,9.52,-140.62,-3.05
1488,12841.0,-0.61,-0.05,-0.16,6.9,-140.62,-3.05
1489,12849.0,-0.64,-0.04,-0.24,3.72,-156.25,-3.05
1490,12856.0,-0.66,-0.08,-0.34,1.53,-156.25,-3.05
1491,12865.0,-0.67,-0.15,-0.48,1.28,-171.88,-3.05
1492,12872.0,-0.65,-0.28,-0.65,3.97,-171.88,-3.05
1493,12879.0,-0.66,-0.42,-0.82,8.85,-171.88,-3.05
1494,12886.0,-0.71,-0.54,-0.96,17.33,-156.25,-3.05
1495,12902.0,-0.92,-0.64,-1.14,38.82,-140.62,-3.05
1496,12909.0,-1.04,-0.57,-1.13,46.51,-140.62,-3.05
1497,12916.0,-1.2,-0.39,-1.04,51.15,-125.0,-3.05
1498,12924.0,-1.38,-0.26,-0.92,53.47,-125.0,-3.05
1499,12931.0,-1.54,-0.11,-0.61,55.36,-156.25,-3.05
1500,12939.0,-1.43,0.03,-0.34,60.91,-187.5,-3.05
1501,12947.0,-0.81,-0.08,-0.15,61.46,-218.75,-3.05
1502,12954.0,-0.15,-0.39,-0.26,44.98,-234.38,-3.05
1503,12961.0,0.24,-0.56,-0.55,9.58,-203.12,-3.05
1504,12969.0,0.41,-0.55,-1.01,-30.09,-171.88,-3.05
1505,12977.0,0.54,-0.41,-1.21,-63.84,-93.75,-3.05
1506,12984.0,0.22,-0.53,-1.28,-86.06,-31.25,-3.05
1507,12992.0,-0.15,-0.58,-1.32,-88.56,15.62,-3.05
1508,13000.0,-0.54,-0.53,-1.4,-87.77,62.5,-3.05
1509,13006.0,-0.85,-0.47,-1.51,-87.59,78.12,-3.05
1510,13014.0,-1.03,-0.44,-1.56,-89.36,78.12,-3.05
1511,13021.0,-1.11,-0.46,-1.54,-90.15,93.75,-3.05
1512,13030.0,-1.1,-0.48,-1.44,-86.85,93.75,-3.05
1513,13037.0,-1.04,-0.49,-1.32,-77.76,93.75,-3.05
1514,13044.0,-0.97,-0.5,-1.21,-66.71,93.75,-3.05
1515,13051.0,-0.92,-0.47,-1.09,-56.52,93.75,-3.05
1516,13059.0,-0.91,-0.4,-1.0,-49.26,93.75,-3.11
1517,13067.0,-0.9,-0.29,-0.94,-46.51,93.75,-3.11
1518,13074.0,-0.91,-0.24,-0.89,-48.77,109.38,-3.11
1519,13082.0,-0.92,-0.22,-0.84,-51.21,109.38,-3.11
1520,13089.0,-0.93,-0.25,-0.82,-50.9,109.38,-3.11
1521,13096.0,-0.91,-0.29,-0.81,-47.36,109.38,-3.11
1522,13104.0,-0.87,-0.34,-0.81,-40.71,109.38,-3.11
1523,13120.0,-0.76,-0.39,-0.69,-20.14,109.38,-3.11
1524,13126.0,-0.73,-0.34,-0.61,-9.83,109.38,-3.11
1525,13134.0,-0.72,-0.27,-0.54,-1.46,109.38,-3.11
1526,13142.0,-0.71,-0.17,-0.45,1.83,93.75,-3.11
1527,13149.0,-0.7,-0.09,-0.38,1.71,93.75,-3.11
1528,13157.0,-0.68,-0.02,-0.33,-2.62,93.75,-3.11
1529,13164.0,-0.67,0.01,-0.31,-8.12,93.75,-3.11
1530,13171.0,-0.65,0.01,-0.27,-14.04,78.12,-3.11
1531,13179.0,-0.64,0.0,-0.25,-17.27,78.12,-3.11
1532,13195.0,-0.62,-0.04,-0.24,-12.33,78.12,-3.11
1533,13203.0,-0.61,-0.05,-0.28,-5.13,62.5,-3.11
1534,13209.0,-0.61,-0.06,-0.31,1.83,62.5,-3.11
1535,13216.0,-0.6,-0.05,-0.31,11.05,46.88,-3.11
1536,13224.0,-0.61,-0.01,-0.32,21.12,46.88,-3.11
1537,13231.0,-0.62,0.05,-0.35,28.93,31.25,-3.11
1538,13240.0,-0.61,0.09,-0.37,33.14,31.25,-3.11
1539,13247.0,-0.61,0.1,-0.36,33.63,15.62,-3.11
1540,13254.0,-0.59,0.06,-0.32,33.14,15.62,-3.11
1541,13261.0,-0.6,0.02,-0.28,32.84,0.0,-3.11
1542,13269.0,-0.61,-0.04,-0.25,32.1,0.0,-3.11
1543,13277.0,-0.61,-0.09,-0.26,32.23,-15.62,-3.11
1544,13284.0,-0.61,-0.15,-0.26,33.14,-31.25,-3.11
1545,13291.0,-0.61,-0.21,-0.25,35.1,-46.88,-3.11
1546,13299.0,-0.63,-0.24,-0.27,35.16,-46.88,-3.11
1547,13306.0,-0.65,-0.25,-0.33,31.8,-62.5,-3.11
1548,13314.0,-0.68,-0.25,-0.39,26.25,-78.12,-3.17
1549,13322.0,-0.73,-0.27,-0.46,20.02,-78.12,-3.17
1550,13329.0,-0.77,-0.3,-0.51,16.6,-78.12,-3.17
1551,13336.0,-0.84,-0.33,-0.56,17.09,-78.12,-3.17
1552,13344.0,-0.91,-0.35,-0.59,19.9,-93.75,-3.17
1553,13352.0,-0.99,-0.35,-0.63,23.13,-93.75,-3.17
1554,13359.0,-1.06,-0.31,-0.67,24.66,-93.75,-3.17
1555,13367.0,-1.14,-0.2,-0.67,29.36,-93.75,-3.17
1556,13374.0,-1.2,-0.09,-0.67,36.62,-109.38,-3.17
1557,13382.0,-1.2,0.0,-0.6,48.77,-125.0,-3.17
1558,13389.0,-1.06,-0.1,-0.52,59.69,-140.62,-3.17
1559,13396.0,-0.76,-0.31,-0.43,62.93,-156.25,-3.17
1560,13405.0,-0.48,-0.42,-0.48,52.73,-156.25,-3.17
1561,13412.0,-0.3,-0.46,-0.7,19.71,-140.62,-3.17
1562,13419.0,-0.03,-0.43,-0.87,-13.12,-125.0,-3.17
1563,13426.0,0.11,-0.49,-0.98,-41.2,-78.12,-3.17
1564,13434.0,-0.02,-0.58,-1.0,-56.58,-15.62,-3.17
1565,13442.0,-0.33,-0.58,-1.06,-59.51,15.62,-3.17
1566,13449.0,-0.65,-0.53,-1.18,-56.4,62.5,-3.17
1567,13457.0,-0.86,-0.44,-1.28,-53.47,78.12,-3.17
1568,13464.0,-0.99,-0.38,-1.35,-49.68,93.75,-3.17
1569,13471.0,-1.04,-0.35,-1.36,-50.11,93.75,-3.17
1570,13479.0,-1.02,-0.31,-1.27,-52.06,109.38,-3.17
1571,13487.0,-1.01,-0.29,-1.15,-52.25,125.0,-3.17
1572,13494.0,-0.98,-0.29,-1.01,-45.29,125.0,-3.17
1573,13501.0,-0.94,-0.31,-0.86,-33.51,125.0,-3.17
1574,13509.0,-0.92,-0.31,-0.75,-20.75,125.0,-3.17
1575,13517.0,-0.89,-0.3,-0.66,-8.42,109.38,-3.17
1576,13524.0,-0.88,-0.28,-0.58,1.53,109.38,-3.17
1577,13532.0,-0.87,-0.27,-0.51,9.83,109.38,-3.17
1578,13539.0,-0.85,-0.27,-0.49,16.97,109.38,-3.17
1579,13546.0,-0.83,-0.26,-0.46,23.68,109.38,-3.17
1580,13554.0,-0.82,-0.25,-0.45,27.47,109.38,-3.17
1581,13562.0,-0.81,-0.21,-0.46,28.14,109.38,-3.17
1582,13569.0,-0.8,-0.17,-0.46,25.33,109.38,-3.23
1583,13577.0,-0.79,-0.15,-0.44,19.29,93.75,-3.23
1584,13584.0,-0.77,-0.12,-0.41,13.12,93.75,-3.23
1585,13591.0,-0.76,-0.11,-0.38,6.41,78.12,-3.23
1586,13608.0,-0.72,-0.11,-0.28,-5.68,62.5,-3.23
1587,13615.0,-0.71,-0.12,-0.25,-9.28,62.5,-3.23
1588,13622.0,-0.7,-0.12,-0.21,-12.76,62.5,-3.23
1589,13629.0,-0.69,-0.12,-0.19,-15.56,46.88,-3.23
1590,13636.0,-0.69,-0.12,-0.19,-18.07,46.88,-3.23
1591,13644.0,-0.67,-0.13,-0.21,-17.09,31.25,-3.23
1592,13652.0,-0.66,-0.14,-0.21,-9.09,31.25,-3.23
1593,13659.0,-0.66,-0.14,-0.22,4.27,15.62,-3.23
1594,13666.0,-0.68,-0.11,-0.23,17.94,15.62,-3.23
1595,13674.0,-0.69,-0.06,-0.25,27.89,0.0,-3.23
1596,13681.0,-0.68,-0.02,-0.27,31.56,0.0,-3.23
1597,13689.0,-0.68,-0.01,-0.28,30.94,-15.62,-3.23
1598,13697.0,-0.69,-0.04,-0.29,27.83,-15.62,-3.23
1599,13704.0,-0.69,-0.09,-0.29,25.39,-31.25,-3.23
1600,13711.0,-0.69,-0.15,-0.33,24.17,-31.25,-3.23
1601,13719.0,-0.67,-0.22,-0.39,24.29,-46.88,-3.23
1602,13727.0,-0.67,-0.26,-0.46,23.25,-46.88,-3.23
1603,13734.0,-0.68,-0.28,-0.51,21.24,-62.5,-3.23
1604,13742.0,-0.7,-0.28,-0.55,17.94,-62.5,-3.23
1605,13749.0,-0.74,-0.29,-0.57,13.67,-62.5,-3.23
1606,13757.0,-0.79,-0.28,-0.61,8.36,-62.5,-3.23
1607,13764.0,-0.83,-0.28,-0.65,3.54,-62.5,-3.23
1608,13772.0,-0.86,-0.27,-0.69,-0.12,-62.5,-3.23
1609,13780.0,-0.9,-0.26,-0.73,-2.99,-62.5,-3.23
1610,13787.0,-0.95,-0.22,-0.73,-5.92,-62.5,-3.23
1611,13794.0,-1.02,-0.11,-0.67,-10.62,-62.5,-3.23
1612,13801.0,-1.08,0.04,-0.58,-12.33,-62.5,-3.23
1613,13809.0,-1.09,0.1,-0.49,-10.01,-78.12,-3.23
1614,13817.0,-1.04,-0.02,-0.38,-8.24,-78.12,-3.23
1615,13824.0,-0.92,-0.2,-0.28,-3.78,-93.75,-3.3
1616,13832.0,-0.74,-0.33,-0.28,6.65,-93.75,-3.3
1617,13839.0,-0.56,-0.44,-0.37,13.18,-93.75,-3.3
1618,13846.0,-0.46,-0.49,-0.49,12.57,-93.75,-3.3
1619,13854.0,-0.37,-0.56,-0.66,11.11,-78.12,-3.3
1620,13862.0,-0.33,-0.62,-0.75,11.66,-46.88,-3.3
1621,13869.0,-0.39,-0.57,-0.82,15.56,-15.62,-3.3
1622,13876.0,-0.54,-0.46,-0.9,15.01,0.0,-3.3
1623,13884.0,-0.71,-0.36,-1.04,6.96,31.25,-3.3
1624,13892.0,-0.83,-0.28,-1.14,-6.96,46.88,-3.3
1625,13899.0,-0.93,-0.23,-1.2,-22.03,46.88,-3.3
1626,13907.0,-0.97,-0.22,-1.19,-37.84,62.5,-3.3
1627,13914.0,-0.98,-0.23,-1.13,-49.56,78.12,-3.3
1628,13921.0,-0.97,-0.25,-1.03,-56.27,78.12,-3.3
1629,13930.0,-0.94,-0.3,-0.89,-57.86,78.12,-3.3
1630,13936.0,-0.92,-0.33,-0.81,-54.99,78.12,-3.3
1631,13944.0,-0.91,-0.35,-0.68,-49.93,78.12,-3.3
1632,13952.0,-0.91,-0.35,-0.6,-44.68,78.12,-3.3
1633,13958.0,-0.89,-0.36,-0.5,-36.01,78.12,-3.3
1634,13967.0,-0.87,-0.39,-0.42,-26.12,78.12,-3.3
1635,13974.0,-0.86,-0.4,-0.38,-14.4,78.12,-3.3
1636,13982.0,-0.84,-0.39,-0.34,0.92,78.12,-3.3
1637,13989.0,-0.83,-0.37,-0.34,15.2,62.5,-3.3
1638,13997.0,-0.82,-0.32,-0.36,26.12,62.5,-3.3
1639,14004.0,-0.81,-0.25,-0.41,32.1,62.5,-3.3
1640,14011.0,-0.81,-0.2,-0.43,31.8,62.5,-3.3
1641,14019.0,-0.8,-0.16,-0.48,27.77,62.5,-3.3
1642,14027.0,-0.79,-0.15,-0.5,20.63,62.5,-3.3
1643,14034.0,-0.78,-0.15,-0.48,11.6,46.88,-3.3
1644,14041.0,-0.77,-0.15,-0.47,3.3,46.88,-3.3
1645,14049.0,-0.75,-0.16,-0.43,-5.43,46.88,-3.3
1646,14056.0,-0.73,-0.17,-0.39,-12.27,46.88,-3.3
1647,14064.0,-0.72,-0.19,-0.37,-17.33,31.25,-3.3
1648,14080.0,-0.71,-0.22,-0.32,-19.59,31.25,-3.36
1649,14087.0,-0.71,-0.22,-0.29,-16.42,15.62,-3.36
1650,14094.0,-0.71,-0.21,-0.3,-12.08,15.62,-3.36
1651,14102.0,-0.71,-0.2,-0.32,-7.45,15.62,-3.36
1652,14109.0,-0.7,-0.18,-0.33,-3.3,0.0,-3.36
1653,14117.0,-0.7,-0.17,-0.36,0.85,0.0,-3.36
1654,14124.0,-0.7,-0.17,-0.38,4.7,0.0,-3.36
1655,14132.0,-0.71,-0.16,-0.39,7.93,-15.62,-3.36
1656,14139.0,-0.71,-0.16,-0.39,9.77,-15.62,-3.36
1657,14147.0,-0.71,-0.16,-0.41,11.72,-15.62,-3.36
1658,14154.0,-0.72,-0.18,-0.41,13.98,-31.25,-3.36
1659,14162.0,-0.73,-0.19,-0.42,15.93,-31.25,-3.36
1660,14169.0,-0.74,-0.21,-0.44,17.52,-31.25,-3.36
1661,14184.0,-0.76,-0.24,-0.52,20.2,-46.88,-3.36
1662,14192.0,-0.77,-0.24,-0.57,20.32,-46.88,-3.36
1663,14199.0,-0.8,-0.23,-0.61,18.98,-46.88,-3.36
1664,14207.0,-0.83,-0.22,-0.64,15.75,-46.88,-3.36
1665,14214.0,-0.87,-0.22,-0.67,11.41,-46.88,-3.36
1666,14221.0,-0.9,-0.22,-0.69,8.24,-46.88,-3.36
1667,14229.0,-0.94,-0.23,-0.69,5.43,-46.88,-3.36
1668,14237.0,-0.98,-0.24,-0.69,6.1,-46.88,-3.36
1669,14245.0,-1.05,-0.23,-0.66,10.31,-46.88,-3.36
1670,14259.0,-1.13,-0.17,-0.5,20.75,-62.5,-3.36
1671,14267.0,-1.05,-0.1,-0.4,26.43,-78.12,-3.36
1672,14274.0,-0.86,-0.15,-0.32,28.26,-93.75,-3.36
1673,14282.0,-0.61,-0.3,-0.36,23.56,-93.75,-3.36
1674,14289.0,-0.44,-0.42,-0.42,13.55,-93.75,-3.36
1675,14297.0,-0.34,-0.48,-0.55,6.1,-62.5,-3.36
1676,14304.0,-0.31,-0.49,-0.66,3.48,-46.88,-3.36
1677,14312.0,-0.34,-0.49,-0.75,1.59,-15.62,-3.36
1678,14319.0,-0.45,-0.49,-0.84,1.22,15.62,-3.36
1679,14327.0,-0.62,-0.45,-0.92,-1.83,31.25,-3.36
1680,14333.0,-0.75,-0.42,-1.0,-6.9,46.88,-3.36
1681,14342.0,-0.86,-0.38,-1.05,-13.43,62.5,-3.42
1682,14349.0,-0.93,-0.36,-1.08,-19.41,78.12,-3.42
1683,14357.0,-0.95,-0.35,-1.08,-25.33,78.12,-3.42
1684,14364.0,-0.96,-0.33,-1.04,-30.27,78.12,-3.42
1685,14372.0,-0.95,-0.3,-0.97,-35.03,93.75,-3.42
1686,14379.0,-0.93,-0.29,-0.86,-39.43,93.75,-3.42
1687,14386.0,-0.91,-0.28,-0.76,-40.16,93.75,-3.42
1688,14394.0,-0.9,-0.29,-0.67,-39.25,93.75,-3.42
1689,14402.0,-0.9,-0.31,-0.6,-36.74,93.75,-3.42
1690,14409.0,-0.89,-0.31,-0.52,-30.27,93.75,-3.42
1691,14424.0,-0.87,-0.33,-0.44,-13.0,93.75,-3.42
1692,14431.0,-0.86,-0.33,-0.44,-4.82,93.75,-3.42
1693,14439.0,-0.85,-0.31,-0.44,2.32,93.75,-3.42
1694,14447.0,-0.85,-0.29,-0.44,7.39,93.75,-3.42
1695,14455.0,-0.85,-0.25,-0.43,10.07,93.75,-3.42
1696,14461.0,-0.83,-0.21,-0.4,9.64,93.75,-3.42
1697,14469.0,-0.82,-0.19,-0.37,7.08,78.12,-3.42
1698,14477.0,-0.8,-0.17,-0.32,3.48,78.12,-3.42
1699,14484.0,-0.79,-0.16,-0.28,0.24,78.12,-3.42
1700,14493.0,-0.78,-0.15,-0.24,-2.87,62.5,-3.42
1701,14499.0,-0.76,-0.16,-0.22,-4.27,62.5,-3.42
1702,14507.0,-0.74,-0.17,-0.23,-7.32,46.88,-3.42
1703,14514.0,-0.72,-0.17,-0.22,-8.36,46.88,-3.42
1704,14522.0,-0.7,-0.18,-0.22,-5.13,46.88,-3.42
1705,14529.0,-0.68,-0.18,-0.21,2.56,31.25,-3.42
1706,14537.0,-0.68,-0.15,-0.23,12.39,31.25,-3.42
1707,14552.0,-0.66,-0.1,-0.24,29.24,0.0,-3.42
1708,14559.0,-0.66,-0.08,-0.21,32.71,0.0,-3.42
1709,14567.0,-0.66,-0.07,-0.2,32.04,-15.62,-3.42
1710,14574.0,-0.67,-0.08,-0.16,28.5,-31.25,-3.42
1711,14582.0,-0.67,-0.09,-0.13,25.09,-31.25,-3.42
1712,14589.0,-0.68,-0.12,-0.13,23.32,-46.88,-3.42
1713,14596.0,-0.68,-0.14,-0.15,23.44,-62.5,-3.48
1714,14604.0,-0.67,-0.17,-0.19,24.17,-78.12,-3.48
1715,14612.0,-0.66,-0.19,-0.27,25.02,-78.12,-3.48
1716,14620.0,-0.66,-0.22,-0.34,25.09,-93.75,-3.48
1717,14626.0,-0.69,-0.24,-0.43,25.09,-93.75,-3.48
1718,14634.0,-0.73,-0.27,-0.53,23.86,-109.38,-3.48
1719,14641.0,-0.77,-0.3,-0.63,22.71,-109.38,-3.48
1720,14649.0,-0.83,-0.32,-0.74,21.55,-109.38,-3.48
1721,14657.0,-0.9,-0.34,-0.84,20.69,-93.75,-3.48
1722,14664.0,-0.97,-0.34,-0.91,19.29,-93.75,-3.48
1723,14672.0,-1.07,-0.3,-0.97,18.68,-78.12,-3.48
1724,14679.0,-1.16,-0.23,-0.98,19.17,-78.12,-3.48
1725,14687.0,-1.29,-0.07,-0.86,23.38,-78.12,-3.48
1726,14694.0,-1.38,0.07,-0.69,30.88,-93.75,-3.48
1727,14702.0,-1.26,0.07,-0.46,34.48,-125.0,-3.48
1728,14708.0,-0.9,-0.06,-0.28,29.24,-140.62,-3.48
1729,14717.0,-0.44,-0.32,-0.36,10.19,-140.62,-3.48
1730,14724.0,-0.12,-0.52,-0.59,-11.6,-125.0,-3.48
1731,14732.0,0.06,-0.6,-0.76,-18.31,-78.12,-3.48
1732,14739.0,0.05,-0.63,-0.82,-19.78,-31.25,-3.48
1733,14747.0,-0.23,-0.65,-0.91,-17.46,15.62,-3.48
1734,14754.0,-0.5,-0.58,-1.05,-12.57,62.5,-3.48
1735,14761.0,-0.78,-0.46,-1.18,-9.7,78.12,-3.48
1736,14770.0,-1.06,-0.31,-1.31,-8.97,93.75,-3.48
1737,14778.0,-1.15,-0.25,-1.37,-15.93,93.75,-3.48
1738,14784.0,-1.13,-0.24,-1.33,-24.11,109.38,-3.48
1739,14791.0,-1.05,-0.26,-1.23,-33.75,109.38,-3.48
1740,14799.0,-0.97,-0.28,-1.06,-40.53,125.0,-3.48
1741,14806.0,-0.91,-0.29,-0.88,-40.41,125.0,-3.48
1742,14814.0,-0.89,-0.29,-0.73,-36.99,125.0,-3.48
1743,14822.0,-0.88,-0.29,-0.59,-31.62,125.0,-3.48
1744,14830.0,-0.88,-0.3,-0.48,-23.93,125.0,-3.48
1745,14836.0,-0.89,-0.28,-0.38,-16.05,125.0,-3.48
1746,14844.0,-0.89,-0.28,-0.31,-5.92,125.0,-3.48
1747,14860.0,-0.85,-0.26,-0.24,16.11,109.38,-3.54
1748,14867.0,-0.83,-0.23,-0.23,25.51,109.38,-3.54
1749,14874.0,-0.8,-0.19,-0.23,31.13,109.38,-3.54
1750,14882.0,-0.79,-0.13,-0.21,32.23,93.75,-3.54
1751,14889.0,-0.79,-0.09,-0.2,29.36,93.75,-3.54
1752,14897.0,-0.78,-0.05,-0.19,24.35,78.12,-3.54
1753,14904.0,-0.77,-0.04,-0.17,17.88,78.12,-3.54
1754,14913.0,-0.76,-0.03,-0.14,10.07,62.5,-3.54
1755,14919.0,-0.75,-0.03,-0.12,3.91,46.88,-3.54
1756,14926.0,-0.72,-0.03,-0.12,-1.46,46.88,-3.54
1757,14936.0,-0.69,-0.05,-0.12,-7.26,31.25,-3.54
1758,14942.0,-0.68,-0.08,-0.13,-8.42,31.25,-3.54
1759,14949.0,-0.67,-0.13,-0.17,-7.63,15.62,-3.54
1760,14957.0,-0.64,-0.18,-0.21,-4.21,0.0,-3.54
1761,14965.0,-0.61,-0.21,-0.24,4.58,-15.62,-3.54
1762,14971.0,-0.61,-0.21,-0.26,11.78,-15.62,-3.54
1763,14979.0,-0.62,-0.22,-0.25,21.0,-31.25,-3.54
1764,14987.0,-0.64,-0.24,-0.21,27.53,-46.88,-3.54
1765,14995.0,-0.66,-0.26,-0.23,33.14,-62.5,-3.54
1766,15009.0,-0.68,-0.31,-0.2,32.59,-78.12,-3.54
1767,15016.0,-0.7,-0.32,-0.21,30.21,-93.75,-3.54
1768,15024.0,-0.73,-0.32,-0.28,25.27,-109.38,-3.54
1769,15032.0,-0.77,-0.31,-0.39,20.94,-109.38,-3.54
1770,15040.0,-0.79,-0.32,-0.53,15.5,-125.0,-3.54
1771,15046.0,-0.82,-0.32,-0.71,11.29,-125.0,-3.54
1772,15054.0,-0.87,-0.31,-0.87,8.85,-109.38,-3.54
1773,15062.0,-0.96,-0.27,-1.04,6.47,-109.38,-3.54
1774,15069.0,-1.06,-0.18,-1.1,1.59,-93.75,-3.54
1775,15077.0,-1.19,-0.04,-1.11,0.18,-78.12,-3.54
1776,15083.0,-1.3,0.02,-1.01,0.85,-78.12,-3.54
1777,15092.0,-1.44,0.1,-0.75,9.28,-93.75,-3.54
1778,15099.0,-1.42,0.0,-0.42,11.54,-125.0,-3.54
1779,15115.0,-0.23,-0.45,-0.54,-23.19,-140.62,-3.6
1780,15122.0,0.05,-0.6,-0.69,-52.67,-109.38,-3.6
1781,15129.0,0.18,-0.66,-0.76,-78.19,-62.5,-3.6
1782,15136.0,0.04,-0.78,-0.85,-89.11,-15.62,-3.6
1783,15144.0,-0.22,-0.81,-0.98,-80.2,46.88,-3.6
1784,15152.0,-0.68,-0.71,-1.17,-54.26,93.75,-3.6
1785,15159.0,-1.08,-0.49,-1.31,-26.67,109.38,-3.6
1786,15166.0,-1.31,-0.29,-1.35,-10.31,109.38,-3.6
1787,15174.0,-1.28,-0.21,-1.34,-7.69,109.38,-3.6
1788,15181.0,-1.15,-0.22,-1.25,-14.04,125.0,-3.6
1789,15190.0,-1.02,-0.25,-1.08,-18.43,140.62,-3.6
1790,15197.0,-0.93,-0.27,-0.92,-16.48,140.62,-3.6
1791,15205.0,-0.87,-0.28,-0.74,-12.02,156.25,-3.6
1792,15211.0,-0.84,-0.26,-0.56,-5.19,156.25,-3.6
1793,15219.0,-0.85,-0.23,-0.43,1.28,156.25,-3.6
1794,15226.0,-0.84,-0.18,-0.33,6.53,156.25,-3.6
1795,15242.0,-0.83,-0.17,-0.2,15.75,140.62,-3.6
1796,15250.0,-0.83,-0.17,-0.17,20.2,140.62,-3.6
1797,15257.0,-0.83,-0.16,-0.14,23.44,125.0,-3.6
1798,15264.0,-0.81,-0.15,-0.1,22.83,125.0,-3.6
1799,15272.0,-0.8,-0.11,-0.07,19.96,109.38,-3.6
1800,15279.0,-0.78,-0.09,-0.03,15.01,109.38,-3.6
1801,15294.0,-0.74,-0.01,-0.1,4.82,78.12,-3.6
1802,15301.0,-0.69,0.02,-0.16,1.34,78.12,-3.6
1803,15309.0,-0.63,0.04,-0.17,4.52,62.5,-3.6
1804,15317.0,-0.59,0.03,-0.16,13.85,46.88,-3.6
1805,15324.0,-0.57,0.01,-0.15,22.16,31.25,-3.6
1806,15332.0,-0.55,-0.02,-0.14,28.81,15.62,-3.6
1807,15339.0,-0.53,-0.05,-0.11,32.9,0.0,-3.6
1808,15347.0,-0.55,-0.12,-0.03,35.77,-15.62,-3.6
1809,15354.0,-0.59,-0.15,0.03,36.62,-31.25,-3.6
1810,15362.0,-0.63,-0.16,0.09,36.99,-46.88,-3.66
1811,15370.0,-0.66,-0.14,0.12,37.17,-62.5,-3.66
1812,15376.0,-0.67,-0.13,0.09,35.16,-93.75,-3.66
1813,15384.0,-0.65,-0.12,0.07,30.27,-109.38,-3.66
1814,15400.0,-0.65,-0.16,-0.04,17.09,-140.62,-3.66
1815,15438.0,-0.88,-0.51,-0.73,-1.34,-156.25,-3.66
1816,15445.0,-0.98,-0.59,-0.85,6.53,-156.25,-3.66
1817,15452.0,-1.1,-0.63,-0.92,16.3,-156.25,-3.66
1818,15459.0,-1.25,-0.55,-0.95,30.27,-140.62,-3.66
1819,15474.0,-1.48,-0.26,-0.92,91.98,-140.62,-3.66
1820,15483.0,-1.53,-0.32,-0.66,118.96,-171.88,-3.66
1821,15489.0,-1.27,-0.5,-0.5,114.01,-203.12,-3.66
1822,15497.0,-0.59,-0.6,-0.59,90.45,-218.75,-3.66
1823,15504.0,-0.13,-0.62,-0.71,52.31,-187.5,-3.66
1824,15511.0,0.15,-0.48,-0.99,6.9,-140.62,-3.66
1825,15519.0,0.18,-0.35,-1.2,-39.37,-93.75,-3.66
1826,15527.0,0.12,-0.39,-1.35,-79.16,-46.88,-3.66
1827,15534.0,-0.08,-0.41,-1.4,-97.11,15.62,-3.66
1828,15541.0,-0.48,-0.37,-1.5,-99.91,62.5,-3.66
1829,15549.0,-0.86,-0.35,-1.58,-98.69,93.75,-3.66
1830,15556.0,-1.05,-0.35,-1.59,-97.05,109.38,-3.66
1831,15564.0,-1.1,-0.37,-1.53,-94.48,125.0,-3.66
1832,15572.0,-1.07,-0.4,-1.42,-88.44,140.62,-3.66
1833,15580.0,-1.02,-0.45,-1.26,-75.99,156.25,-3.66
1834,15586.0,-0.95,-0.51,-1.13,-59.02,156.25,-3.66
1835,15594.0,-0.86,-0.53,-0.95,-37.11,156.25,-3.66
1836,15601.0,-0.82,-0.45,-0.77,-16.78,156.25,-3.66
1837,15610.0,-0.8,-0.31,-0.6,-0.67,156.25,-3.66
1838,15617.0,-0.78,-0.23,-0.49,6.41,156.25,-3.72
1839,15625.0,-0.76,-0.15,-0.37,8.12,156.25,-3.72
1840,15631.0,-0.75,-0.11,-0.3,7.39,156.25,-3.72
1841,15639.0,-0.74,-0.11,-0.23,5.19,140.62,-3.72
1842,15647.0,-0.73,-0.12,-0.18,4.52,140.62,-3.72
1843,15654.0,-0.72,-0.13,-0.14,4.52,140.62,-3.72
1844,15662.0,-0.72,-0.13,-0.11,4.82,125.0,-3.72
1845,15669.0,-0.72,-0.13,-0.09,3.54,125.0,-3.72
1846,15679.0,-0.72,-0.09,-0.08,1.16,109.38,-3.72
1847,15684.0,-0.71,-0.07,-0.08,-0.79,93.75,-3.72
1848,15692.0,-0.7,-0.04,-0.12,-4.52,93.75,-3.72
1849,15699.0,-0.68,-0.04,-0.17,-8.24,78.12,-3.72
1850,15707.0,-0.65,-0.04,-0.18,-9.77,78.12,-3.72
1851,15714.0,-0.62,-0.04,-0.16,-7.02,62.5,-3.72
1852,15722.0,-0.62,-0.03,-0.15,-3.17,46.88,-3.72
1853,15729.0,-0.61,-0.02,-0.13,-1.71,46.88,-3.72
1854,15737.0,-0.6,-0.01,-0.14,-2.14,31.25,-3.72
1855,15745.0,-0.59,-0.04,-0.16,-3.05,15.62,-3.72
1856,15751.0,-0.59,-0.07,-0.15,-0.85,0.0,-3.72
1857,15759.0,-0.6,-0.1,-0.14,5.0,0.0,-3.72
1858,15768.0,-0.61,-0.12,-0.14,12.45,-31.25,-3.72
1859,15775.0,-0.63,-0.12,-0.12,16.24,-31.25,-3.72
1860,15782.0,-0.65,-0.12,-0.1,17.21,-46.88,-3.72
1861,15790.0,-0.68,-0.14,-0.08,15.08,-62.5,-3.72
1862,15796.0,-0.68,-0.17,-0.08,9.58,-78.12,-3.72
1863,15805.0,-0.69,-0.2,-0.08,3.48,-93.75,-3.72
1864,15811.0,-0.69,-0.23,-0.12,-0.12,-109.38,-3.72
1865,15820.0,-0.7,-0.25,-0.21,-4.27,-125.0,-3.72
1866,15827.0,-0.71,-0.27,-0.31,-6.23,-140.62,-3.72
1867,15834.0,-0.74,-0.31,-0.43,-4.27,-140.62,-3.72
1868,15841.0,-0.76,-0.37,-0.55,0.73,-156.25,-3.72
1869,15849.0,-0.8,-0.45,-0.69,8.18,-156.25,-3.72
1870,15857.0,-0.84,-0.51,-0.8,18.37,-156.25,-3.72
1871,15864.0,-0.93,-0.52,-0.92,30.76,-140.62,-3.72
1872,15872.0,-1.05,-0.48,-0.97,42.18,-140.62,-3.78
1873,15879.0,-1.2,-0.33,-1.0,54.69,-140.62,-3.78
1874,15886.0,-1.31,-0.13,-0.97,67.69,-140.62,-3.78
1875,15894.0,-1.38,0.03,-0.92,66.35,-140.62,-3.78
1876,15902.0,-1.32,0.07,-0.77,38.21,-171.88,-3.78
1877,15909.0,-0.93,0.04,-0.66,-5.13,-187.5,-3.78
1878,15916.0,-0.4,-0.09,-0.65,-48.46,-187.5,-3.78
1879,15924.0,0.08,-0.44,-0.79,-86.49,-156.25,-3.78
1880,15932.0,0.26,-0.78,-1.02,-102.78,-93.75,-3.78
1881,15939.0,0.13,-0.88,-1.21,-92.35,-46.88,-3.78
1882,15947.0,-0.13,-0.8,-1.35,-68.12,15.62,-3.78
1883,15955.0,-0.53,-0.54,-1.47,-45.96,62.5,-3.78
1884,15961.0,-0.81,-0.29,-1.54,-34.36,93.75,-3.78
1885,15969.0,-1.01,-0.15,-1.57,-32.9,109.38,-3.78
1886,15976.0,-1.07,-0.15,-1.55,-38.27,125.0,-3.78
1887,15985.0,-1.04,-0.24,-1.46,-42.85,140.62,-3.78
1888,15992.0,-0.99,-0.34,-1.34,-41.32,156.25,-3.78
1889,16000.0,-0.92,-0.42,-1.17,-30.33,171.88,-3.78
1890,16006.0,-0.89,-0.43,-1.02,-13.79,171.88,-3.78
1891,16014.0,-0.86,-0.38,-0.82,5.49,187.5,-3.78
1892,16022.0,-0.85,-0.31,-0.69,20.81,187.5,-3.78
1893,16029.0,-0.83,-0.24,-0.55,30.7,187.5,-3.78
1894,16037.0,-0.82,-0.2,-0.47,35.89,187.5,-3.78
1895,16044.0,-0.81,-0.19,-0.37,38.02,187.5,-3.78
1896,16051.0,-0.8,-0.19,-0.31,40.53,171.88,-3.78
1897,16059.0,-0.78,-0.2,-0.27,42.24,171.88,-3.78
1898,16067.0,-0.77,-0.19,-0.25,40.77,171.88,-3.78
1899,16074.0,-0.75,-0.18,-0.24,34.67,171.88,-3.78
1900,16082.0,-0.74,-0.17,-0.2,26.31,156.25,-3.78
1901,16089.0,-0.73,-0.16,-0.16,18.37,156.25,-3.78
1902,16097.0,-0.72,-0.16,-0.12,11.23,140.62,-3.78
1903,16105.0,-0.72,-0.15,-0.09,6.04,140.62,-3.78
1904,16112.0,-0.72,-0.15,-0.07,2.01,125.0,-3.78
1905,16119.0,-0.7,-0.14,-0.07,-3.11,109.38,-3.78
1906,16126.0,-0.67,-0.13,-0.1,-9.77,109.38,-3.78
1907,16134.0,-0.63,-0.12,-0.16,-16.48,93.75,-3.85
1908,16142.0,-0.59,-0.15,-0.14,-15.56,78.12,-3.85
1909,16150.0,-0.59,-0.19,-0.11,-9.22,78.12,-3.85
1910,16165.0,-0.61,-0.24,-0.08,9.4,46.88,-3.85
1911,16171.0,-0.63,-0.25,-0.03,15.93,31.25,-3.85
1912,16179.0,-0.65,-0.25,0.05,19.41,15.62,-3.85
1913,16186.0,-0.69,-0.25,0.12,20.02,0.0,-3.85
1914,16202.0,-0.74,-0.21,0.17,8.48,-46.88,-3.85
1915,16209.0,-0.73,-0.19,0.16,1.65,-62.5,-3.85
1916,16216.0,-0.72,-0.18,0.12,-4.39,-78.12,-3.85
1917,16224.0,-0.71,-0.17,0.08,-9.58,-93.75,-3.85
1918,16232.0,-0.73,-0.15,-0.01,-13.67,-109.38,-3.85
1919,16240.0,-0.76,-0.14,-0.1,-18.68,-125.0,-3.85
1920,16247.0,-0.78,-0.12,-0.18,-21.97,-140.62,-3.85
1921,16254.0,-0.8,-0.13,-0.29,-23.68,-140.62,-3.85
1922,16261.0,-0.82,-0.18,-0.38,-22.34,-156.25,-3.85
1923,16269.0,-0.85,-0.24,-0.5,-16.66,-156.25,-3.85
1924,16277.0,-0.9,-0.29,-0.61,-8.79,-156.25,-3.85
1925,16284.0,-0.95,-0.32,-0.74,1.04,-156.25,-3.85
1926,16291.0,-1.0,-0.35,-0.9,10.86,-156.25,-3.85
1927,16299.0,-1.06,-0.35,-1.02,18.01,-140.62,-3.85
1928,16307.0,-1.15,-0.32,-1.1,22.89,-125.0,-3.85
1929,16314.0,-1.3,-0.23,-1.06,30.33,-125.0,-3.85
1930,16322.0,-1.51,-0.07,-0.85,40.95,-125.0,-3.85
1931,16329.0,-1.56,-0.0,-0.55,40.16,-156.25,-3.85
1932,16345.0,-0.4,-0.36,-0.33,4.52,-203.12,-3.85
1933,16351.0,-0.02,-0.51,-0.45,-18.62,-171.88,-3.85
1934,16360.0,0.17,-0.6,-0.84,-37.05,-125.0,-3.85
1935,16367.0,0.15,-0.64,-1.16,-41.93,-62.5,-3.85
1936,16375.0,-0.05,-0.65,-1.32,-36.07,-15.62,-3.85
1937,16381.0,-0.38,-0.52,-1.35,-24.05,31.25,-3.85
1938,16389.0,-0.69,-0.33,-1.44,-15.99,62.5,-3.91
1939,16397.0,-0.85,-0.19,-1.49,-20.63,93.75,-3.91
1940,16404.0,-0.94,-0.15,-1.51,-34.06,109.38,-3.91
1941,16412.0,-0.96,-0.19,-1.45,-47.79,125.0,-3.91
1942,16419.0,-0.96,-0.26,-1.33,-57.19,140.62,-3.91
1943,16426.0,-0.94,-0.33,-1.15,-59.45,156.25,-3.91
1944,16434.0,-0.92,-0.35,-1.0,-55.3,156.25,-3.91
1945,16442.0,-0.88,-0.34,-0.82,-49.74,156.25,-3.91
1946,16449.0,-0.85,-0.3,-0.67,-46.75,156.25,-3.91
1947,16457.0,-0.83,-0.25,-0.5,-46.02,156.25,-3.91
1948,16472.0,-0.83,-0.21,-0.26,-49.8,156.25,-3.91
1949,16479.0,-0.81,-0.24,-0.18,-48.77,140.62,-3.91
1950,16487.0,-0.8,-0.28,-0.11,-41.93,140.62,-3.91
1951,16494.0,-0.79,-0.3,-0.06,-30.7,140.62,-3.91
1952,16502.0,-0.8,-0.33,-0.02,-14.4,125.0,-3.91
1953,16509.0,-0.81,-0.34,0.0,0.24,125.0,-3.91
1954,16517.0,-0.81,-0.31,0.01,12.7,109.38,-3.91
1955,16525.0,-0.82,-0.25,0.02,19.41,93.75,-3.91
1956,16532.0,-0.83,-0.19,0.02,20.51,93.75,-3.91
1957,16540.0,-0.83,-0.13,0.04,18.07,78.12,-3.91
1958,16555.0,-0.79,-0.1,0.07,5.31,46.88,-3.91
1959,16562.0,-0.76,-0.09,0.08,1.04,46.88,-3.91
1960,16569.0,-0.73,-0.06,0.04,-3.36,31.25,-3.91
1961,16577.0,-0.71,-0.04,-0.04,-9.4,31.25,-3.91
1962,16584.0,-0.67,-0.05,-0.13,-10.07,15.62,-3.91
1963,16599.0,-0.64,-0.14,-0.18,10.56,0.0,-3.91
1964,16607.0,-0.65,-0.15,-0.18,23.32,-15.62,-3.91
1965,16614.0,-0.65,-0.15,-0.18,30.7,-31.25,-3.91
1966,16622.0,-0.65,-0.16,-0.19,32.65,-31.25,-3.91
1967,16629.0,-0.66,-0.18,-0.19,32.35,-46.88,-3.91
1968,16637.0,-0.67,-0.22,-0.22,30.21,-62.5,-3.91
1969,16644.0,-0.68,-0.28,-0.25,28.32,-78.12,-3.97
1970,16652.0,-0.68,-0.34,-0.3,25.02,-93.75,-3.97
1971,16659.0,-0.69,-0.37,-0.36,22.22,-109.38,-3.97
1972,16666.0,-0.71,-0.38,-0.42,15.93,-109.38,-3.97
1973,16674.0,-0.73,-0.33,-0.48,7.69,-125.0,-3.97
1974,16682.0,-0.78,-0.29,-0.55,-3.66,-125.0,-3.97
1975,16689.0,-0.82,-0.26,-0.65,-14.65,-125.0,-3.97
1976,16697.0,-0.87,-0.26,-0.75,-21.48,-125.0,-3.97
1977,16704.0,-0.91,-0.26,-0.86,-21.85,-109.38,-3.97
1978,16712.0,-0.97,-0.28,-1.0,-16.3,-109.38,-3.97
1979,16719.0,-1.04,-0.27,-1.11,-10.93,-93.75,-3.97
1980,16727.0,-1.13,-0.23,-1.19,-6.41,-78.12,-3.97
1981,16734.0,-1.29,-0.15,-1.18,-4.88,-78.12,-3.97
1982,16742.0,-1.51,-0.0,-0.95,-5.0,-78.12,-3.97
1983,16750.0,-1.71,0.13,-0.67,-2.5,-93.75,-3.97
1984,16756.0,-1.68,0.12,-0.29,1.65,-140.62,-3.97
1985,16764.0,-1.08,-0.26,0.04,2.99,-171.88,-3.97
1986,16772.0,-0.33,-0.64,0.0,10.86,-171.88,-3.97
1987,16779.0,0.0,-0.96,-0.27,19.23,-140.62,-3.97
1988,16787.0,-0.0,-0.99,-0.74,26.86,-109.38,-3.97
1989,16794.0,0.13,-0.83,-0.96,33.33,-62.5,-3.97
1990,16801.0,-0.06,-0.57,-1.04,28.56,0.0,-3.97
1991,16809.0,-0.34,-0.32,-1.08,21.48,46.88,-3.97
1992,16817.0,-0.58,-0.2,-1.2,11.47,93.75,-3.97
1993,16824.0,-0.83,-0.15,-1.31,-3.36,125.0,-3.97
1994,16832.0,-1.04,-0.13,-1.33,-22.28,125.0,-3.97
1995,16839.0,-1.1,-0.18,-1.31,-37.05,140.62,-3.97
1996,16847.0,-1.07,-0.26,-1.22,-48.4,140.62,-3.97
1997,16854.0,-1.0,-0.35,-1.09,-53.16,140.62,-3.97
1998,16862.0,-0.91,-0.41,-0.92,-50.11,156.25,-3.97
1999,16869.0,-0.86,-0.42,-0.76,-41.14,156.25,-3.97
2000,16877.0,-0.84,-0.41,-0.6,-27.4,156.25,-3.97
2001,16884.0,-0.85,-0.4,-0.47,-13.12,156.25,-3.97
2002,16892.0,-0.85,-0.36,-0.35,2.01,156.25,-3.97
2003,16907.0,-0.82,-0.27,-0.17,29.11,140.62,-4.03
2004,16915.0,-0.81,-0.22,-0.12,38.39,140.62,-4.03
2005,16921.0,-0.81,-0.18,-0.07,43.88,140.62,-4.03
2006,16929.0,-0.81,-0.14,-0.05,44.62,125.0,-4.03
2007,16937.0,-0.81,-0.1,-0.03,40.59,125.0,-4.03
2008,16944.0,-0.81,-0.07,-0.01,34.3,109.38,-4.03
2009,16952.0,-0.81,-0.07,0.01,28.26,109.38,-4.03
2010,16959.0,-0.81,-0.08,0.04,20.81,93.75,-4.03
2011,16966.0,-0.8,-0.08,0.05,15.81,78.12,-4.03
2012,16974.0,-0.79,-0.08,0.05,12.27,78.12,-4.03
2013,16982.0,-0.77,-0.09,0.02,8.97,62.5,-4.03
2014,16990.0,-0.76,-0.1,0.01,5.49,46.88,-4.03
2015,16997.0,-0.72,-0.12,-0.08,1.22,46.88,-4.03
2016,17004.0,-0.68,-0.15,-0.15,1.16,31.25,-4.03
2017,17012.0,-0.64,-0.2,-0.2,9.95,31.25,-4.03
2018,17019.0,-0.63,-0.24,-0.22,25.82,15.62,-4.03
2019,17036.0,-0.65,-0.3,-0.24,52.8,-15.62,-4.03
2020,17042.0,-0.67,-0.31,-0.2,56.27,-31.25,-4.03
2021,17049.0,-0.68,-0.31,-0.16,53.22,-31.25,-4.03
2022,17057.0,-0.72,-0.31,-0.13,46.75,-46.88,-4.03
2023,17064.0,-0.74,-0.29,-0.11,34.73,-62.5,-4.03
2024,17072.0,-0.73,-0.28,-0.12,20.26,-78.12,-4.03
2025,17087.0,-0.72,-0.31,-0.18,-2.99,-109.38,-4.03
2026,17094.0,-0.71,-0.32,-0.22,-11.35,-125.0,-4.03
2027,17102.0,-0.73,-0.29,-0.3,-20.94,-125.0,-4.03
2028,17112.0,-0.76,-0.26,-0.41,-31.01,-140.62,-4.03
2029,17117.0,-0.8,-0.25,-0.51,-34.24,-140.62,-4.03
2030,17125.0,-0.84,-0.26,-0.67,-33.94,-140.62,-4.03
2031,17131.0,-0.88,-0.28,-0.83,-29.3,-125.0,-4.03
2032,17139.0,-0.95,-0.28,-0.96,-19.41,-125.0,-4.03
2033,17147.0,-1.04,-0.27,-1.12,-11.35,-109.38,-4.03
2034,17155.0,-1.12,-0.24,-1.19,-7.14,-93.75,-4.09
2035,17162.0,-1.27,-0.15,-1.17,-11.66,-93.75,-4.09
2036,17169.0,-1.43,0.02,-0.98,-21.67,-93.75,-4.09
2037,17176.0,-1.56,0.13,-0.77,-28.2,-109.38,-4.09
2038,17184.0,-1.49,-0.04,-0.5,-34.06,-140.62,-4.09
2039,17192.0,-1.05,-0.33,-0.3,-37.72,-156.25,-4.09
2040,17200.0,-0.51,-0.6,-0.23,-25.63,-156.25,-4.09
2041,17207.0,-0.19,-0.9,-0.42,-13.98,-140.62,-4.09
2042,17214.0,-0.06,-0.94,-0.82,-14.65,-109.38,-4.09
2043,17222.0,0.03,-0.76,-1.03,-22.95,-62.5,-4.09
2044,17229.0,-0.1,-0.58,-1.11,-44.25,-15.62,-4.09
2045,17237.0,-0.33,-0.49,-1.18,-64.39,31.25,-4.09
2046,17245.0,-0.48,-0.4,-1.22,-78.0,78.12,-4.09
2047,17251.0,-0.7,-0.37,-1.24,-90.21,109.38,-4.09
2048,17259.0,-0.82,-0.37,-1.23,-102.54,125.0,-4.09
2049,17267.0,-0.89,-0.42,-1.17,-113.16,140.62,-4.09
2050,17274.0,-0.93,-0.45,-1.09,-117.61,140.62,-4.09
2051,17282.0,-0.97,-0.49,-0.98,-117.43,156.25,-4.09
2052,17291.0,-0.98,-0.52,-0.83,-110.6,156.25,-4.09
2053,17296.0,-0.98,-0.55,-0.73,-103.15,156.25,-4.09
2054,17304.0,-0.96,-0.55,-0.63,-86.49,156.25,-4.09
2055,17312.0,-0.93,-0.53,-0.51,-63.9,156.25,-4.09
2056,17320.0,-0.89,-0.46,-0.37,-42.3,140.62,-4.09
2057,17334.0,-0.83,-0.31,-0.18,-9.4,140.62,-4.09
2058,17341.0,-0.81,-0.25,-0.11,1.53,140.62,-4.09
2059,17349.0,-0.82,-0.2,-0.07,11.29,140.62,-4.09
2060,17357.0,-0.82,-0.17,-0.04,19.65,125.0,-4.09
2061,17373.0,-0.84,-0.09,-0.05,31.13,109.38,-4.09
2062,17379.0,-0.84,-0.04,-0.06,31.49,109.38,-4.09
2063,17386.0,-0.83,0.01,-0.05,29.54,93.75,-4.09
2064,17395.0,-0.82,0.06,-0.03,25.82,93.75,-4.09
2065,17402.0,-0.81,0.07,-0.02,23.62,78.12,-4.09
2066,17433.0,-0.71,-0.03,-0.08,38.7,46.88,-4.15
2067,17439.0,-0.68,-0.06,-0.14,49.01,31.25,-4.15
2068,17447.0,-0.65,-0.07,-0.2,61.77,15.62,-4.15
2069,17455.0,-0.63,-0.07,-0.21,73.24,15.62,-4.15
2070,17461.0,-0.64,-0.09,-0.22,79.83,0.0,-4.15
2071,17469.0,-0.64,-0.12,-0.19,80.81,-15.62,-4.15
2072,17477.0,-0.65,-0.18,-0.14,78.25,-31.25,-4.15
2073,17486.0,-0.69,-0.23,-0.04,71.47,-46.88,-4.15
2074,17494.0,-0.74,-0.23,0.03,63.96,-62.5,-4.15
2075,17500.0,-0.78,-0.22,0.06,56.76,-62.5,-4.15
2076,17507.0,-0.81,-0.2,0.04,45.41,-93.75,-4.15
2077,17514.0,-0.8,-0.17,-0.03,34.06,-109.38,-4.15
2078,17522.0,-0.79,-0.15,-0.09,25.15,-109.38,-4.15
2079,17530.0,-0.79,-0.13,-0.16,17.46,-125.0,-4.15
2080,17537.0,-0.8,-0.13,-0.25,10.62,-125.0,-4.15
2081,17544.0,-0.8,-0.15,-0.37,6.53,-140.62,-4.15
2082,17553.0,-0.83,-0.24,-0.54,8.48,-140.62,-4.15
2083,17559.0,-0.85,-0.32,-0.66,13.67,-140.62,-4.15
2084,17567.0,-0.89,-0.43,-0.81,23.62,-125.0,-4.15
2085,17575.0,-0.96,-0.49,-0.95,35.16,-125.0,-4.15
2086,17582.0,-1.05,-0.5,-1.05,43.09,-109.38,-4.15
2087,17589.0,-1.15,-0.41,-1.1,45.1,-109.38,-4.15
2088,17597.0,-1.24,-0.3,-1.12,44.98,-93.75,-4.15
2089,17604.0,-1.33,-0.24,-1.03,45.29,-78.12,-4.15
2090,17612.0,-1.46,-0.26,-0.89,49.87,-78.12,-4.15
2091,17620.0,-1.59,-0.29,-0.54,58.35,-109.38,-4.15
2092,17626.0,-1.34,-0.42,-0.21,66.28,-156.25,-4.15
2093,17634.0,-0.61,-0.64,-0.09,64.82,-171.88,-4.15
2094,17642.0,-0.15,-0.75,-0.14,42.18,-156.25,-4.15
2095,17649.0,0.08,-0.71,-0.5,4.88,-125.0,-4.15
2096,17657.0,0.18,-0.46,-0.77,-30.52,-78.12,-4.15
2097,17665.0,-0.01,-0.48,-0.88,-58.29,-31.25,-4.21
2098,17671.0,-0.1,-0.56,-0.93,-65.0,31.25,-4.21
2099,17679.0,-0.4,-0.51,-0.99,-58.04,78.12,-4.21
2100,17687.0,-0.73,-0.41,-1.09,-49.32,109.38,-4.21
2101,17694.0,-0.95,-0.33,-1.15,-49.26,125.0,-4.21
2102,17702.0,-1.05,-0.33,-1.19,-51.94,125.0,-4.21
2103,17709.0,-1.08,-0.36,-1.15,-55.73,140.62,-4.21
2104,17716.0,-1.09,-0.37,-1.08,-56.46,140.62,-4.21
2105,17724.0,-1.07,-0.41,-0.97,-50.42,140.62,-4.21
2106,17732.0,-1.01,-0.47,-0.87,-38.76,140.62,-4.21
2107,17748.0,-0.92,-0.41,-0.64,-6.23,140.62,-4.21
2108,17754.0,-0.9,-0.35,-0.55,6.71,140.62,-4.21
2109,17761.0,-0.89,-0.28,-0.46,15.2,156.25,-4.21
2110,17770.0,-0.88,-0.21,-0.38,19.9,156.25,-4.21
2111,17777.0,-0.89,-0.17,-0.32,21.48,156.25,-4.21
2112,17785.0,-0.88,-0.16,-0.25,23.19,156.25,-4.21
2113,17791.0,-0.87,-0.16,-0.2,24.84,140.62,-4.21
2114,17799.0,-0.87,-0.16,-0.15,26.49,140.62,-4.21
2115,17807.0,-0.86,-0.14,-0.1,26.49,125.0,-4.21
2116,17815.0,-0.85,-0.1,-0.1,23.93,125.0,-4.21
2117,17830.0,-0.82,-0.01,-0.15,10.93,109.38,-4.21
2118,17836.0,-0.78,-0.01,-0.16,6.04,93.75,-4.21
2119,17847.0,-0.73,-0.03,-0.13,10.01,93.75,-4.21
2120,17853.0,-0.72,-0.06,-0.08,18.31,78.12,-4.21
2121,17859.0,-0.72,-0.07,-0.07,24.05,78.12,-4.21
2122,17867.0,-0.73,-0.08,-0.05,30.46,62.5,-4.21
2123,17875.0,-0.71,-0.1,-0.05,33.94,46.88,-4.21
2124,17882.0,-0.71,-0.12,-0.03,38.09,31.25,-4.21
2125,17889.0,-0.71,-0.15,0.01,42.3,15.62,-4.21
2126,17898.0,-0.73,-0.18,0.02,45.96,0.0,-4.21
2127,17905.0,-0.74,-0.18,0.02,45.72,-15.62,-4.21
2128,17919.0,-0.75,-0.16,0.06,35.52,-46.88,-4.27
2129,17926.0,-0.76,-0.17,0.04,26.43,-62.5,-4.27
2130,17935.0,-0.75,-0.18,-0.0,15.2,-78.12,-4.27
2131,17942.0,-0.75,-0.16,-0.01,5.55,-93.75,-4.27
2132,17950.0,-0.77,-0.14,-0.05,-4.03,-109.38,-4.27
2133,17957.0,-0.8,-0.12,-0.1,-12.33,-109.38,-4.27
2134,17964.0,-0.82,-0.12,-0.2,-18.07,-125.0,-4.27
2135,17972.0,-0.83,-0.12,-0.29,-20.39,-125.0,-4.27
2136,17987.0,-0.91,-0.14,-0.55,-13.79,-125.0,-4.27
2137,17995.0,-0.99,-0.15,-0.68,-4.27,-125.0,-4.27
2138,18001.0,-1.07,-0.19,-0.8,6.59,-109.38,-4.27
2139,18009.0,-1.17,-0.23,-0.88,17.52,-109.38,-4.27
2140,18017.0,-1.26,-0.26,-0.93,27.59,-109.38,-4.27
2141,18024.0,-1.36,-0.24,-0.93,35.64,-93.75,-4.27
2142,18032.0,-1.47,-0.22,-0.9,40.65,-93.75,-4.27
2143,18040.0,-1.61,-0.19,-0.74,45.17,-109.38,-4.27
2144,18046.0,-1.6,-0.23,-0.56,54.14,-140.62,-4.27
2145,18054.0,-1.25,-0.35,-0.33,65.19,-156.25,-4.27
2146,18062.0,-0.74,-0.53,-0.19,70.25,-171.88,-4.27
2147,18069.0,-0.28,-0.7,-0.16,47.91,-171.88,-4.27
2148,18077.0,-0.09,-0.62,-0.6,26.73,-125.0,-4.27
2149,18084.0,0.11,-0.35,-0.95,-1.71,-93.75,-4.27
2150,18092.0,0.04,-0.29,-1.12,-25.33,-31.25,-4.27
2151,18099.0,-0.05,-0.37,-1.13,-33.33,15.62,-4.27
2152,18107.0,-0.3,-0.36,-1.12,-30.7,78.12,-4.27
2153,18115.0,-0.61,-0.3,-1.13,-29.36,109.38,-4.27
2154,18122.0,-0.74,-0.3,-1.14,-34.55,140.62,-4.27
2155,18129.0,-0.89,-0.31,-1.13,-43.03,156.25,-4.27
2156,18136.0,-0.99,-0.34,-1.08,-50.54,156.25,-4.27
2157,18145.0,-1.06,-0.37,-0.99,-54.26,156.25,-4.27
2158,18152.0,-1.06,-0.4,-0.89,-51.03,156.25,-4.27
2159,18160.0,-0.99,-0.42,-0.77,-39.12,156.25,-4.27
2160,18166.0,-0.94,-0.41,-0.65,-22.89,156.25,-4.27
2161,18174.0,-0.92,-0.37,-0.54,-4.15,140.62,-4.27
2162,18182.0,-0.91,-0.32,-0.44,9.16,140.62,-4.33
2163,18189.0,-0.87,-0.26,-0.36,17.09,140.62,-4.33
2164,18197.0,-0.83,-0.2,-0.28,21.18,140.62,-4.33
2165,18205.0,-0.81,-0.17,-0.24,20.45,140.62,-4.33
2166,18211.0,-0.8,-0.15,-0.22,16.6,140.62,-4.33
2167,18219.0,-0.8,-0.15,-0.19,13.18,140.62,-4.33
2168,18227.0,-0.81,-0.15,-0.16,9.89,140.62,-4.33
2169,18234.0,-0.81,-0.16,-0.12,9.09,125.0,-4.33
2170,18242.0,-0.8,-0.15,-0.09,10.5,109.38,-4.33
2171,18250.0,-0.8,-0.13,-0.06,11.66,109.38,-4.33
2172,18257.0,-0.78,-0.09,-0.02,10.93,93.75,-4.33
2173,18264.0,-0.77,-0.07,0.03,8.42,93.75,-4.33
2174,18272.0,-0.76,-0.04,0.09,5.62,78.12,-4.33
2175,18279.0,-0.75,-0.01,0.14,2.99,62.5,-4.33
2176,18287.0,-0.75,0.02,0.16,1.1,62.5,-4.33
2177,18295.0,-0.76,0.05,0.07,-3.3,46.88,-4.33
2178,18301.0,-0.74,0.06,-0.05,-10.31,31.25,-4.33
2179,18310.0,-0.66,0.03,-0.16,-14.16,15.62,-4.33
2180,18317.0,-0.59,-0.01,-0.2,-8.85,0.0,-4.33
2181,18325.0,-0.58,-0.05,-0.25,8.06,0.0,-4.33
2182,18332.0,-0.61,-0.14,-0.26,23.99,-15.62,-4.33
2183,18339.0,-0.66,-0.21,-0.18,33.39,-31.25,-4.33
2184,18347.0,-0.71,-0.22,-0.08,36.44,-46.88,-4.33
2185,18354.0,-0.78,-0.17,0.05,33.08,-62.5,-4.33
2186,18362.0,-0.83,-0.13,0.12,25.7,-78.12,-4.33
2187,18370.0,-0.86,-0.1,0.12,18.31,-109.38,-4.33
2188,18376.0,-0.85,-0.1,0.09,13.73,-125.0,-4.33
2189,18385.0,-0.85,-0.08,0.03,14.53,-140.62,-4.33
2190,18392.0,-0.86,-0.05,-0.05,19.35,-140.62,-4.33
2191,18399.0,-0.89,-0.02,-0.16,24.6,-156.25,-4.33
2192,18407.0,-0.93,0.01,-0.32,25.15,-156.25,-4.33
2193,18415.0,-0.94,0.0,-0.47,23.74,-171.88,-4.33
2194,18421.0,-0.95,-0.08,-0.68,22.77,-171.88,-4.33
2195,18429.0,-0.96,-0.2,-0.88,25.63,-156.25,-4.33
2196,18437.0,-0.99,-0.39,-1.07,31.8,-140.62,-4.39
2197,18444.0,-1.07,-0.49,-1.2,41.14,-125.0,-4.39
2198,18452.0,-1.21,-0.53,-1.3,54.32,-109.38,-4.39
2199,18459.0,-1.38,-0.5,-1.26,60.67,-93.75,-4.39
2200,18467.0,-1.63,-0.35,-1.04,65.37,-93.75,-4.39
2201,18474.0,-1.84,-0.22,-0.74,74.52,-125.0,-4.39
2202,18482.0,-1.72,-0.3,-0.34,75.44,-171.88,-4.39
2203,18490.0,-1.11,-0.36,-0.05,80.93,-203.12,-4.39
2204,18497.0,-0.39,-0.49,0.04,82.64,-218.75,-4.39
2205,18504.0,0.27,-0.66,-0.13,48.4,-187.5,-4.39
2206,18511.0,0.31,-0.56,-0.82,25.02,-140.62,-4.39
2207,18520.0,0.47,-0.36,-1.15,-13.06,-78.12,-4.39
2208,18527.0,0.35,-0.24,-1.35,-27.95,-15.62,-4.39
2209,18535.0,0.14,-0.15,-1.31,-46.39,62.5,-4.39
2210,18541.0,-0.34,-0.05,-1.31,-61.04,109.38,-4.39
2211,18549.0,-0.6,-0.07,-1.28,-77.76,140.62,-4.39
2212,18557.0,-0.68,-0.16,-1.25,-97.29,156.25,-4.39
2213,18564.0,-0.87,-0.27,-1.2,-117.19,171.88,-4.39
2214,18572.0,-1.01,-0.36,-1.14,-130.43,187.5,-4.39
2215,18580.0,-1.08,-0.48,-1.02,-128.66,187.5,-4.39
2216,18586.0,-1.11,-0.58,-0.9,-112.55,171.88,-4.39
2217,18594.0,-1.06,-0.63,-0.76,-83.5,171.88,-4.39
2218,18602.0,-1.0,-0.62,-0.63,-48.03,156.25,-4.39
2219,18609.0,-0.95,-0.56,-0.56,-19.65,156.25,-4.39
2220,18617.0,-0.91,-0.41,-0.47,0.79,156.25,-4.39
2221,18625.0,-0.9,-0.27,-0.41,13.85,156.25,-4.39
2222,18632.0,-0.89,-0.19,-0.36,16.72,156.25,-4.39
2223,18647.0,-0.87,-0.1,-0.26,7.2,156.25,-4.39
2224,18656.0,-0.88,-0.09,-0.2,0.06,156.25,-4.39
2225,18664.0,-0.89,-0.11,-0.16,-3.54,156.25,-4.39
2226,18669.0,-0.9,-0.12,-0.12,-4.15,140.62,-4.39
2227,18693.0,-0.89,-0.09,0.02,3.85,109.38,-4.46
2228,18700.0,-0.88,-0.06,0.08,4.64,109.38,-4.46
2229,18707.0,-0.85,-0.03,0.11,2.93,93.75,-4.46
2230,18714.0,-0.82,-0.02,0.11,1.1,78.12,-4.46
2231,18722.0,-0.81,-0.02,0.11,0.43,78.12,-4.46
2232,18729.0,-0.79,-0.01,0.07,-2.56,62.5,-4.46
2233,18737.0,-0.76,0.02,-0.04,-8.0,46.88,-4.46
2234,18745.0,-0.71,0.02,-0.14,-11.05,31.25,-4.46
2235,18751.0,-0.65,-0.01,-0.17,-7.2,31.25,-4.46
2236,18759.0,-0.62,-0.05,-0.19,4.76,15.62,-4.46
2237,18767.0,-0.62,-0.12,-0.21,20.02,0.0,-4.46
2238,18774.0,-0.64,-0.18,-0.18,33.81,0.0,-4.46
2239,18782.0,-0.68,-0.23,-0.1,40.34,-15.62,-4.46
2240,18790.0,-0.74,-0.22,0.01,41.08,-31.25,-4.46
2241,18797.0,-0.8,-0.2,0.11,36.62,-46.88,-4.46
2242,18804.0,-0.83,-0.18,0.16,27.53,-78.12,-4.46
2243,18812.0,-0.83,-0.16,0.17,19.53,-93.75,-4.46
2244,18819.0,-0.83,-0.17,0.13,16.42,-109.38,-4.46
2245,18827.0,-0.81,-0.16,0.05,12.94,-125.0,-4.46
2246,18834.0,-0.81,-0.13,-0.04,10.86,-125.0,-4.46
2247,18842.0,-0.82,-0.09,-0.13,9.4,-140.62,-4.46
2248,18849.0,-0.83,-0.08,-0.22,5.92,-140.62,-4.46
2249,18859.0,-0.86,-0.16,-0.39,-0.12,-156.25,-4.46
2250,18873.0,-0.84,-0.37,-0.67,-0.85,-156.25,-4.46
2251,18879.0,-0.85,-0.5,-0.78,8.85,-140.62,-4.46
2252,18887.0,-0.89,-0.64,-0.91,28.44,-125.0,-4.46
2253,18895.0,-0.98,-0.68,-1.01,50.48,-125.0,-4.46
2254,18902.0,-1.08,-0.59,-1.08,67.5,-109.38,-4.46
2255,18912.0,-1.19,-0.41,-1.09,81.73,-109.38,-4.46
2256,18916.0,-1.28,-0.27,-1.01,80.2,-93.75,-4.46
2257,18924.0,-1.4,-0.02,-0.72,77.03,-109.38,-4.46
2258,18932.0,-1.5,-0.01,-0.37,84.05,-125.0,-4.46
2259,18939.0,-1.23,-0.42,-0.1,71.84,-171.88,-4.46
2260,18947.0,-0.5,-0.73,-0.17,64.39,-171.88,-4.52
2261,18955.0,-0.18,-0.65,-0.41,63.29,-156.25,-4.52
2262,18961.0,-0.11,-0.5,-0.71,35.89,-125.0,-4.52
2263,18969.0,-0.01,-0.38,-0.92,-5.98,-93.75,-4.52
2264,18977.0,-0.12,-0.4,-1.02,-41.93,-46.88,-4.52
2265,18985.0,-0.21,-0.42,-1.15,-58.78,0.0,-4.52
2266,18992.0,-0.42,-0.4,-1.24,-61.04,46.88,-4.52
2267,19000.0,-0.66,-0.33,-1.33,-56.4,62.5,-4.52
2268,19007.0,-0.82,-0.26,-1.37,-53.41,93.75,-4.52
2269,19015.0,-0.89,-0.21,-1.33,-55.66,109.38,-4.52
2270,19022.0,-0.91,-0.24,-1.25,-57.68,109.38,-4.52
2271,19029.0,-0.91,-0.3,-1.14,-56.88,125.0,-4.52
2272,19038.0,-0.88,-0.39,-0.98,-47.3,125.0,-4.52
2273,19044.0,-0.86,-0.49,-0.86,-30.94,140.62,-4.52
2274,19052.0,-0.84,-0.53,-0.72,-7.02,140.62,-4.52
2275,19059.0,-0.84,-0.56,-0.6,20.63,140.62,-4.52
2276,19067.0,-0.86,-0.54,-0.49,47.73,140.62,-4.52
2277,19074.0,-0.86,-0.49,-0.42,72.63,140.62,-4.52
2278,19090.0,-0.88,-0.33,-0.32,111.94,140.62,-4.52
2279,19097.0,-0.87,-0.26,-0.29,123.35,140.62,-4.52
2280,19112.0,-0.87,-0.12,-0.28,129.27,140.62,-4.52
2281,19120.0,-0.86,-0.01,-0.26,119.81,125.0,-4.52
2282,19126.0,-0.85,0.08,-0.25,105.96,125.0,-4.52
2283,19135.0,-0.84,0.13,-0.23,85.21,109.38,-4.52
2284,19142.0,-0.82,0.15,-0.19,66.47,109.38,-4.52
2285,19149.0,-0.8,0.13,-0.16,44.98,93.75,-4.52
2286,19157.0,-0.8,0.11,-0.13,23.62,93.75,-4.52
2287,19165.0,-0.79,0.06,-0.11,3.91,78.12,-4.52
2288,19171.0,-0.79,-0.01,-0.09,-9.7,78.12,-4.52
2289,19179.0,-0.78,-0.06,-0.06,-17.46,62.5,-4.52
2290,19187.0,-0.78,-0.09,-0.03,-21.79,46.88,-4.52
2291,19194.0,-0.77,-0.08,-0.03,-25.15,31.25,-4.52
2292,19202.0,-0.77,-0.06,-0.04,-31.37,31.25,-4.58
2293,19216.0,-0.74,-0.02,-0.17,-46.88,0.0,-4.58
2294,19224.0,-0.71,-0.03,-0.2,-49.74,0.0,-4.58
2295,19232.0,-0.71,-0.08,-0.2,-46.57,0.0,-4.58
2296,19239.0,-0.72,-0.12,-0.21,-38.94,-15.62,-4.58
2297,19248.0,-0.75,-0.14,-0.22,-29.24,-31.25,-4.58
2298,19254.0,-0.77,-0.15,-0.2,-22.58,-31.25,-4.58
2299,19262.0,-0.8,-0.15,-0.17,-17.03,-46.88,-4.58
2300,19269.0,-0.83,-0.15,-0.17,-12.76,-62.5,-4.58
2301,19277.0,-0.83,-0.15,-0.22,-9.89,-62.5,-4.58
2302,19285.0,-0.82,-0.15,-0.25,-9.64,-78.12,-4.58
2303,19291.0,-0.81,-0.15,-0.31,-10.31,-78.12,-4.58
2304,19299.0,-0.83,-0.15,-0.38,-8.36,-93.75,-4.58
2305,19307.0,-0.84,-0.15,-0.45,-7.57,-93.75,-4.58
2306,19314.0,-0.85,-0.15,-0.49,-5.98,-93.75,-4.58
2307,19322.0,-0.88,-0.16,-0.52,-3.85,-93.75,-4.58
2308,19330.0,-0.92,-0.18,-0.55,1.4,-93.75,-4.58
2309,19336.0,-0.96,-0.2,-0.57,8.0,-93.75,-4.58
2310,19352.0,-1.06,-0.24,-0.56,15.75,-93.75,-4.58
2311,19360.0,-1.1,-0.26,-0.53,17.82,-93.75,-4.58
2312,19367.0,-1.14,-0.26,-0.5,19.96,-109.38,-4.58
2313,19375.0,-1.21,-0.22,-0.5,19.29,-109.38,-4.58
2314,19382.0,-1.26,-0.15,-0.45,12.33,-125.0,-4.58
2315,19389.0,-1.25,-0.09,-0.38,-0.12,-140.62,-4.58
2316,19397.0,-1.05,-0.11,-0.34,-9.09,-156.25,-4.58
2317,19404.0,-0.73,-0.26,-0.29,-16.17,-171.88,-4.58
2318,19413.0,-0.41,-0.35,-0.31,-22.4,-156.25,-4.58
2319,19419.0,-0.27,-0.44,-0.43,-21.48,-140.62,-4.58
2320,19427.0,-0.23,-0.53,-0.75,-17.15,-109.38,-4.58
2321,19434.0,-0.15,-0.55,-1.08,-9.03,-62.5,-4.58
2322,19442.0,-0.11,-0.38,-1.22,0.0,-31.25,-4.58
2323,19449.0,-0.29,-0.23,-1.25,-1.34,15.62,-4.58
2324,19458.0,-0.54,-0.11,-1.28,-18.49,46.88,-4.64
2325,19465.0,-0.73,-0.09,-1.31,-45.41,78.12,-4.64
2326,19472.0,-0.81,-0.19,-1.29,-70.98,109.38,-4.64
2327,19479.0,-0.9,-0.34,-1.23,-90.39,125.0,-4.64
2328,19487.0,-0.98,-0.45,-1.15,-96.62,140.62,-4.64
2329,19495.0,-1.04,-0.52,-1.01,-91.74,140.62,-4.64
2330,19501.0,-1.06,-0.52,-0.89,-79.65,140.62,-4.64
2331,19517.0,-1.04,-0.4,-0.63,-52.31,125.0,-4.64
2332,19524.0,-1.03,-0.35,-0.53,-41.69,125.0,-4.64
2333,19532.0,-1.02,-0.31,-0.46,-32.53,125.0,-4.64
2334,19540.0,-1.01,-0.28,-0.39,-23.13,125.0,-4.64
2335,19546.0,-0.99,-0.27,-0.35,-15.56,125.0,-4.64
2336,19555.0,-0.96,-0.25,-0.33,-6.9,125.0,-4.64
2337,19562.0,-0.94,-0.24,-0.34,-2.08,125.0,-4.64
2338,19570.0,-0.91,-0.22,-0.34,1.71,109.38,-4.64
2339,19577.0,-0.9,-0.19,-0.34,4.58,109.38,-4.64
2340,19592.0,-0.86,-0.16,-0.3,7.08,93.75,-4.64
2341,19599.0,-0.83,-0.15,-0.28,7.51,93.75,-4.64
2342,19607.0,-0.81,-0.14,-0.25,7.08,93.75,-4.64
2343,19614.0,-0.79,-0.13,-0.2,6.59,78.12,-4.64
2344,19623.0,-0.77,-0.13,-0.16,6.65,78.12,-4.64
2345,19629.0,-0.76,-0.13,-0.14,6.96,62.5,-4.64
2346,19645.0,-0.73,-0.1,-0.13,13.31,46.88,-4.64
2347,19652.0,-0.7,-0.09,-0.17,15.99,46.88,-4.64
2348,19667.0,-0.66,-0.1,-0.24,26.06,31.25,-4.64
2349,19674.0,-0.67,-0.12,-0.24,35.03,15.62,-4.64
2350,19683.0,-0.71,-0.12,-0.27,45.72,15.62,-4.64
2351,19689.0,-0.71,-0.12,-0.28,48.89,0.0,-4.64
2352,19699.0,-0.71,-0.14,-0.24,50.42,0.0,-4.64
2353,19705.0,-0.72,-0.17,-0.21,51.82,-15.62,-4.64
2354,19711.0,-0.75,-0.22,-0.19,53.22,-31.25,-4.7
2355,19719.0,-0.76,-0.26,-0.19,54.2,-31.25,-4.7
2356,19727.0,-0.76,-0.27,-0.21,53.65,-46.88,-4.7
2357,19735.0,-0.76,-0.26,-0.21,51.03,-62.5,-4.7
2358,19750.0,-0.8,-0.26,-0.27,43.46,-78.12,-4.7
2359,19756.0,-0.82,-0.27,-0.31,39.55,-78.12,-4.7
2360,19764.0,-0.85,-0.26,-0.35,35.28,-93.75,-4.7
2361,19772.0,-0.86,-0.25,-0.4,32.04,-93.75,-4.7
2362,19779.0,-0.89,-0.24,-0.45,28.93,-93.75,-4.7
2363,19788.0,-0.93,-0.22,-0.52,27.47,-93.75,-4.7
2364,19794.0,-0.97,-0.2,-0.59,24.11,-93.75,-4.7
2365,19802.0,-1.02,-0.16,-0.63,20.08,-93.75,-4.7
2366,19809.0,-1.09,-0.1,-0.67,14.77,-93.75,-4.7
2367,19817.0,-1.17,-0.01,-0.66,7.02,-93.75,-4.7
2368,19825.0,-1.23,0.09,-0.57,-2.62,-109.38,-4.7
2369,19832.0,-1.21,0.14,-0.5,-11.35,-125.0,-4.7
2370,19839.0,-1.05,0.05,-0.43,-16.66,-125.0,-4.7
2371,19847.0,-0.81,-0.14,-0.4,-20.08,-140.62,-4.7
2372,19862.0,-0.36,-0.45,-0.62,-31.07,-109.38,-4.7
2373,19870.0,-0.25,-0.54,-0.81,-31.92,-78.12,-4.7
2374,19884.0,-0.29,-0.48,-0.93,-23.99,0.0,-4.7
2375,19892.0,-0.46,-0.43,-0.98,-19.84,31.25,-4.7
2376,19900.0,-0.69,-0.33,-1.07,-21.18,62.5,-4.7
2377,19907.0,-0.85,-0.27,-1.16,-26.55,93.75,-4.7
2378,19915.0,-0.97,-0.26,-1.19,-34.48,109.38,-4.7
2379,19921.0,-1.03,-0.27,-1.17,-41.87,109.38,-4.7
2380,19929.0,-1.06,-0.29,-1.1,-46.39,125.0,-4.7
2381,19937.0,-1.05,-0.3,-0.98,-47.42,140.62,-4.7
2382,19945.0,-1.02,-0.31,-0.83,-42.36,140.62,-4.7
2383,19952.0,-0.98,-0.33,-0.72,-35.89,140.62,-4.7
2384,19959.0,-0.95,-0.32,-0.59,-28.2,140.62,-4.7
2385,19967.0,-0.95,-0.3,-0.51,-21.24,140.62,-4.76
2386,19982.0,-0.94,-0.25,-0.35,-15.14,140.62,-4.76
2387,19990.0,-0.91,-0.23,-0.24,-13.06,140.62,-4.76
2388,19998.0,-0.9,-0.2,-0.19,-11.96,140.62,-4.76
2389,20011.0,-0.89,-0.2,-0.13,-9.03,125.0,-4.76
2390,20019.0,-0.87,-0.16,-0.12,-7.2,125.0,-4.76
2391,20027.0,-0.86,-0.13,-0.11,-7.02,125.0,-4.76
2392,20035.0,-0.86,-0.09,-0.12,-9.03,109.38,-4.76
2393,20041.0,-0.87,-0.07,-0.12,-12.51,109.38,-4.76
2394,20049.0,-0.86,-0.07,-0.05,-15.01,93.75,-4.76
2395,20057.0,-0.84,-0.09,-0.0,-16.6,78.12,-4.76
2396,20064.0,-0.81,-0.1,-0.0,-16.78,78.12,-4.76
2397,20072.0,-0.78,-0.11,-0.02,-16.24,62.5,-4.76
2398,20080.0,-0.74,-0.09,-0.11,-16.85,46.88,-4.76
2399,20086.0,-0.68,-0.06,-0.22,-16.97,46.88,-4.76
2400,20094.0,-0.61,-0.03,-0.26,-12.08,31.25,-4.76
2401,20102.0,-0.59,-0.03,-0.26,-3.11,31.25,-4.76
2402,20110.0,-0.63,-0.08,-0.2,6.96,15.62,-4.76
2403,20117.0,-0.69,-0.14,-0.14,15.14,15.62,-4.76
2404,20125.0,-0.73,-0.18,-0.06,21.06,0.0,-4.76
2405,20131.0,-0.76,-0.17,0.02,23.32,-15.62,-4.76
2406,20140.0,-0.79,-0.16,0.07,21.36,-46.88,-4.76
2407,20147.0,-0.79,-0.14,0.06,15.87,-62.5,-4.76
2408,20155.0,-0.79,-0.13,0.0,12.45,-62.5,-4.76
2409,20163.0,-0.78,-0.13,-0.06,12.45,-78.12,-4.76
2410,20169.0,-0.79,-0.12,-0.1,13.37,-93.75,-4.76
2411,20177.0,-0.83,-0.08,-0.18,14.16,-93.75,-4.76
2412,20184.0,-0.87,-0.05,-0.24,14.71,-109.38,-4.76
2413,20192.0,-0.9,-0.05,-0.29,20.39,-109.38,-4.76
2414,20200.0,-0.94,-0.13,-0.34,31.31,-109.38,-4.76
2415,20208.0,-1.0,-0.23,-0.39,53.1,-109.38,-4.76
2416,20214.0,-1.06,-0.27,-0.43,69.7,-109.38,-4.76
2417,20222.0,-1.12,-0.27,-0.49,90.76,-109.38,-4.76
2418,20229.0,-1.18,-0.26,-0.54,106.14,-109.38,-4.82
2419,20237.0,-1.24,-0.22,-0.59,114.69,-109.38,-4.82
2420,20245.0,-1.28,-0.19,-0.59,116.88,-109.38,-4.82
2421,20259.0,-1.39,0.05,-0.42,87.95,-125.0,-4.82
2422,20267.0,-1.31,0.14,-0.3,53.16,-140.62,-4.82
2423,20275.0,-1.07,-0.03,-0.29,23.8,-156.25,-4.82
2424,20282.0,-0.75,-0.33,-0.38,11.47,-156.25,-4.82
2425,20290.0,-0.47,-0.54,-0.52,13.06,-125.0,-4.82
2426,20296.0,-0.36,-0.58,-0.68,22.95,-109.38,-4.82
2427,20312.0,-0.29,-0.41,-1.07,26.37,-46.88,-4.82
2428,20320.0,-0.35,-0.28,-1.21,16.3,0.0,-4.82
2429,20327.0,-0.48,-0.2,-1.3,2.81,31.25,-4.82
2430,20334.0,-0.66,-0.16,-1.38,-18.25,62.5,-4.82
2431,20341.0,-0.77,-0.16,-1.39,-41.02,78.12,-4.82
2432,20349.0,-0.86,-0.2,-1.33,-63.48,109.38,-4.82
2433,20358.0,-0.91,-0.26,-1.18,-82.4,125.0,-4.82
2434,20364.0,-0.94,-0.31,-1.05,-88.5,125.0,-4.82
2435,20373.0,-0.95,-0.34,-0.85,-87.1,140.62,-4.82
2436,20379.0,-0.96,-0.35,-0.7,-78.92,140.62,-4.82
2437,20387.0,-0.96,-0.36,-0.56,-65.8,140.62,-4.82
2438,20394.0,-0.95,-0.37,-0.46,-52.0,140.62,-4.82
2439,20402.0,-0.94,-0.35,-0.4,-38.7,140.62,-4.82
2440,20410.0,-0.94,-0.31,-0.35,-27.4,140.62,-4.82
2441,20416.0,-0.92,-0.27,-0.3,-17.88,140.62,-4.82
2442,20424.0,-0.92,-0.23,-0.27,-12.57,125.0,-4.82
2443,20432.0,-0.9,-0.18,-0.25,-9.34,125.0,-4.82
2444,20439.0,-0.88,-0.14,-0.22,-6.96,125.0,-4.82
2445,20447.0,-0.88,-0.11,-0.18,-5.31,109.38,-4.82
2446,20455.0,-0.87,-0.1,-0.14,-4.46,109.38,-4.82
2447,20461.0,-0.85,-0.08,-0.1,-2.62,93.75,-4.82
2448,20469.0,-0.83,-0.07,-0.06,-1.16,93.75,-4.82
2449,20477.0,-0.81,-0.05,-0.06,-2.26,78.12,-4.82
2450,20485.0,-0.77,-0.04,-0.05,-5.0,78.12,-4.88
2451,20492.0,-0.76,-0.04,-0.06,-6.96,62.5,-4.88
2452,20500.0,-0.74,-0.05,-0.1,-7.69,62.5,-4.88
2453,20506.0,-0.74,-0.06,-0.1,-5.86,46.88,-4.88
2454,20516.0,-0.73,-0.08,-0.08,0.31,31.25,-4.88
2455,20522.0,-0.73,-0.08,-0.08,6.1,31.25,-4.88
2456,20530.0,-0.71,-0.07,-0.12,12.88,15.62,-4.88
2457,20537.0,-0.7,-0.07,-0.12,18.07,0.0,-4.88
2458,20544.0,-0.69,-0.09,-0.1,21.91,-15.62,-4.88
2459,20552.0,-0.71,-0.13,-0.07,23.44,-15.62,-4.88
2460,20559.0,-0.75,-0.15,-0.02,24.84,-31.25,-4.88
2461,20567.0,-0.79,-0.17,0.01,24.96,-46.88,-4.88
2462,20575.0,-0.82,-0.17,0.01,21.91,-78.12,-4.88
2463,20582.0,-0.81,-0.16,-0.01,15.44,-93.75,-4.88
2464,20589.0,-0.8,-0.17,-0.02,8.97,-93.75,-4.88
2465,20597.0,-0.81,-0.19,-0.05,4.7,-109.38,-4.88
2466,20604.0,-0.82,-0.2,-0.06,3.17,-125.0,-4.88
2467,20612.0,-0.87,-0.2,-0.05,3.85,-125.0,-4.88
2468,20620.0,-0.94,-0.19,-0.11,5.92,-140.62,-4.88
2469,20626.0,-0.98,-0.19,-0.22,8.3,-156.25,-4.88
2470,20634.0,-0.99,-0.21,-0.33,12.15,-156.25,-4.88
2471,20642.0,-1.01,-0.25,-0.49,17.33,-156.25,-4.88
2472,20650.0,-1.04,-0.28,-0.59,19.9,-156.25,-4.88
2473,20657.0,-1.11,-0.26,-0.68,23.62,-156.25,-4.88
2474,20665.0,-1.21,-0.19,-0.74,28.75,-140.62,-4.88
2475,20671.0,-1.29,-0.09,-0.74,35.64,-156.25,-4.88
2476,20679.0,-1.28,0.02,-0.71,40.71,-156.25,-4.88
2477,20687.0,-1.14,0.05,-0.65,31.13,-187.5,-4.88
