,Unnamed: 0,aX,aY,aZ,gX,gY,gZ
0,0,1.03,-0.33,-0.07,95.58,31.25,-0.12
1,1,1.02,-0.16,-0.06,84.11,15.62,-0.12
2,2,1.12,-0.1,-0.02,80.57,46.88,-0.12
3,3,1.06,-0.09,-0.01,60.61,46.88,-0.12
4,4,1.1,-0.13,-0.01,48.89,46.88,-0.12
5,5,1.14,-0.18,-0.01,41.56,31.25,-0.12
6,6,1.23,-0.2,-0.03,33.57,31.25,-0.18
7,7,1.28,-0.2,-0.01,33.26,46.88,-0.18
8,8,1.32,-0.13,-0.01,31.31,46.88,-0.18
9,9,1.33,-0.05,-0.03,28.81,46.88,-0.18
10,10,1.31,0.01,-0.02,24.35,62.5,-0.18
11,11,1.27,0.07,-0.02,19.78,62.5,-0.18
12,12,1.24,0.08,-0.01,13.79,62.5,-0.18
13,13,1.21,0.07,-0.0,6.9,62.5,-0.18
14,14,1.19,0.08,0.02,2.26,46.88,-0.18
15,15,1.18,0.07,0.05,-0.85,46.88,-0.18
16,16,1.19,0.07,0.07,-4.64,46.88,-0.18
17,17,1.16,0.08,0.08,-8.91,46.88,-0.18
18,18,1.13,0.09,0.08,-14.1,46.88,-0.18
19,19,1.08,0.11,0.07,-19.29,46.88,-0.18
20,20,1.03,0.12,0.07,-24.84,46.88,-0.18
21,21,0.99,0.12,0.06,-30.52,31.25,-0.18
22,22,0.97,0.12,0.05,-37.11,31.25,-0.18
23,23,1.0,0.13,0.05,-41.5,31.25,-0.18
24,24,1.04,0.15,0.06,-45.96,15.62,-0.18
25,25,1.1,0.17,0.08,-49.26,15.62,-0.18
26,26,1.14,0.21,0.09,-53.16,15.62,-0.18
27,27,1.16,0.24,0.11,-57.31,15.62,-0.18
28,28,1.16,0.26,0.12,-60.06,15.62,-0.18
29,29,1.11,0.25,0.13,-63.78,15.62,-0.18
30,30,1.05,0.21,0.14,-67.02,15.62,-0.18
31,31,0.98,0.15,0.15,-64.21,15.62,-0.18
32,32,0.93,0.06,0.13,-57.98,15.62,-0.18
33,33,0.89,-0.0,0.13,-49.13,15.62,-0.18
34,34,0.87,-0.04,0.13,-36.8,15.62,-0.18
35,35,0.86,-0.06,0.12,-25.27,0.0,-0.18
36,36,0.86,-0.04,0.1,-15.81,0.0,-0.18
37,37,0.88,0.0,0.08,-5.8,0.0,-0.18
38,38,0.87,0.05,0.06,3.91,0.0,-0.18
39,39,0.87,0.07,0.03,12.02,0.0,-0.18
40,40,0.85,0.07,0.01,19.78,0.0,-0.24
41,41,0.83,0.05,-0.01,24.96,0.0,-0.24
42,42,0.81,0.01,-0.03,30.58,0.0,-0.24
43,43,0.8,-0.02,-0.04,35.64,-15.62,-0.24
44,44,0.8,-0.05,-0.07,38.33,-15.62,-0.24
45,45,0.81,-0.07,-0.07,39.86,-15.62,-0.24
46,46,0.85,-0.08,-0.07,39.55,-31.25,-0.24
47,47,0.9,-0.1,-0.07,36.07,-31.25,-0.24
48,48,0.96,-0.11,-0.07,31.98,-31.25,-0.24
49,49,1.01,-0.13,-0.07,25.94,-31.25,-0.24
50,50,1.05,-0.13,-0.06,18.62,-31.25,-0.24
51,51,1.08,-0.14,-0.06,10.86,-31.25,-0.24
52,52,1.11,-0.15,-0.06,2.75,-31.25,-0.24
53,53,1.13,-0.13,-0.11,-14.83,-31.25,-0.24
54,54,1.15,-0.1,-0.12,-34.85,-31.25,-0.24
55,55,1.2,-0.03,-0.15,-68.18,-31.25,-0.24
56,56,1.67,1.17,-1.35,-521.67,15.62,-0.24
57,57,1.35,-0.59,0.91,-229.61,125.0,-0.24
58,58,0.61,-2.49,0.18,57.37,0.0,-0.24
59,59,0.76,-2.33,-0.35,-105.65,0.0,-0.24
60,60,0.91,-1.31,-0.06,-21.61,-31.25,-0.24
61,61,1.07,-0.36,0.09,101.14,0.0,-0.24
62,62,1.13,0.23,-0.05,150.33,15.62,-0.24
63,63,1.25,0.37,-0.15,96.07,31.25,-0.24
64,64,1.29,0.32,-0.05,30.21,46.88,-0.24
65,65,1.17,0.14,-0.34,-59.57,31.25,-0.24
66,66,1.04,-0.16,-0.55,-153.81,-31.25,-0.24
67,67,1.16,-0.7,-0.15,-134.22,-93.75,-0.24
68,68,1.5,-1.04,0.02,-39.79,-46.88,-0.24
69,69,1.5,-0.89,-0.32,-10.93,31.25,-0.24
70,70,1.3,-0.54,-0.05,16.78,62.5,-0.24
71,71,0.93,-0.5,-0.18,21.06,31.25,-0.24
72,72,0.93,-0.42,-0.2,28.75,31.25,-0.24
73,73,0.88,-0.45,-0.21,32.96,15.62,-0.31
74,74,0.88,-0.46,-0.19,31.8,15.62,-0.31
75,75,0.93,-0.45,-0.2,35.4,15.62,-0.31
76,76,0.9,-0.41,-0.21,31.37,0.0,-0.31
77,77,0.99,-0.39,-0.23,27.34,0.0,-0.31
78,78,1.0,-0.43,-0.22,26.43,0.0,-0.31
79,79,1.05,-0.5,-0.19,33.14,15.62,-0.31
80,80,0.98,-0.49,-0.18,34.85,0.0,-0.31
81,81,1.05,-0.45,-0.21,37.84,15.62,-0.31
82,82,1.07,-0.47,-0.21,41.81,15.62,-0.31
83,83,1.1,-0.48,-0.18,47.73,15.62,-0.31
84,84,1.04,-0.56,-0.3,67.14,15.62,-0.31
85,85,1.05,-0.63,-0.02,80.51,15.62,-0.31
86,86,1.0,-0.65,-0.21,119.38,15.62,-0.31
87,87,1.0,-0.7,-0.17,135.93,15.62,-0.31
88,88,1.03,-0.59,-0.12,157.41,15.62,-0.31
89,89,1.04,-0.46,-0.15,168.95,15.62,-0.31
90,90,1.06,-0.25,-0.18,157.96,15.62,-0.31
91,91,1.02,-0.07,-0.24,85.94,15.62,-0.31
92,92,0.99,-0.15,-0.23,59.45,31.25,-0.31
93,93,0.95,-0.3,-0.22,44.98,31.25,-0.31
94,94,0.92,-0.4,-0.2,44.31,31.25,-0.31
95,95,0.9,-0.45,-0.19,50.72,31.25,-0.31
96,96,0.9,-0.41,-0.2,55.91,31.25,-0.31
97,97,0.9,-0.33,-0.21,51.21,31.25,-0.31
98,98,0.88,-0.23,-0.26,32.78,31.25,-0.31
99,99,0.85,-0.2,-0.29,6.84,31.25,-0.31
100,100,0.82,-0.23,-0.29,-19.35,15.62,-0.31
101,101,0.8,-0.31,-0.27,-32.53,15.62,-0.31
102,102,0.8,-0.41,-0.25,-31.62,15.62,-0.31
103,103,0.82,-0.53,-0.21,-16.85,0.0,-0.31
104,104,0.84,-0.6,-0.2,5.0,0.0,-0.31
105,105,0.88,-0.61,-0.19,28.08,0.0,-0.31
106,106,0.91,-0.56,-0.19,46.63,0.0,-0.37
107,107,0.93,-0.5,-0.2,60.06,0.0,-0.37
108,108,0.95,-0.47,-0.2,67.63,0.0,-0.37
109,109,0.99,-0.44,-0.18,71.04,0.0,-0.37
110,110,1.01,-0.42,-0.18,70.56,0.0,-0.37
111,111,1.04,-0.39,-0.19,67.87,0.0,-0.37
112,112,1.07,-0.37,-0.17,63.48,0.0,-0.37
113,113,1.09,-0.37,-0.14,59.27,15.62,-0.37
114,114,1.1,-0.37,-0.12,54.14,15.62,-0.37
115,115,1.11,-0.36,-0.11,50.48,15.62,-0.37
116,116,1.2,-0.35,-0.11,44.62,15.62,-0.37
117,117,1.26,-0.35,-0.12,40.83,15.62,-0.37
118,118,1.32,-0.35,-0.13,37.35,15.62,-0.37
119,119,1.36,-0.35,-0.14,35.46,15.62,-0.37
120,120,1.36,-0.36,-0.11,34.55,31.25,-0.37
121,121,1.33,-0.35,-0.09,34.79,31.25,-0.37
122,122,1.28,-0.33,-0.08,36.38,46.88,-0.37
123,123,1.21,-0.3,-0.06,35.95,46.88,-0.37
124,124,1.15,-0.26,-0.04,33.81,46.88,-0.37
125,125,1.11,-0.21,-0.02,31.37,31.25,-0.37
126,126,1.12,-0.18,-0.01,25.94,31.25,-0.37
127,127,1.12,-0.15,-0.03,18.25,31.25,-0.37
128,128,1.14,-0.14,-0.02,11.41,31.25,-0.37
129,129,1.13,-0.09,-0.09,1.04,31.25,-0.37
130,130,1.12,-0.07,-0.14,-4.64,31.25,-0.37
131,131,1.12,-0.04,-0.15,-12.88,31.25,-0.37
132,132,1.13,-0.01,-0.16,-21.55,15.62,-0.37
133,133,1.3,-0.03,-0.08,-60.42,15.62,-0.37
134,134,1.33,-0.02,-0.06,-62.56,15.62,-0.37
135,135,1.34,-0.01,-0.06,-62.5,15.62,-0.37
136,136,1.32,-0.02,-0.04,-60.67,15.62,-0.43
137,137,1.3,-0.05,-0.04,-57.92,15.62,-0.43
138,138,1.27,-0.07,-0.03,-54.75,15.62,-0.43
139,139,1.26,-0.08,-0.03,-50.17,15.62,-0.43
140,140,1.26,-0.08,-0.02,-45.41,15.62,-0.43
141,141,1.25,-0.08,-0.0,-41.69,15.62,-0.43
142,142,1.22,-0.08,0.01,-39.06,31.25,-0.43
143,143,1.19,-0.08,0.01,-37.17,31.25,-0.43
144,144,1.13,-0.06,0.0,-34.67,46.88,-0.43
145,145,1.04,-0.04,-0.0,-31.01,46.88,-0.43
146,146,0.96,-0.02,-0.0,-27.53,46.88,-0.43
147,147,0.88,0.0,-0.04,-25.94,46.88,-0.43
148,148,0.82,0.01,-0.07,-23.68,46.88,-0.43
149,149,0.78,0.02,-0.1,-21.18,31.25,-0.43
150,150,0.75,0.01,-0.15,-18.62,31.25,-0.43
151,151,0.73,0.01,-0.17,-16.72,31.25,-0.43
152,152,0.72,0.02,-0.18,-15.08,31.25,-0.43
153,153,0.71,0.02,-0.18,-14.16,15.62,-0.43
154,154,0.71,0.03,-0.18,-14.04,15.62,-0.43
155,155,0.71,0.05,-0.17,-13.0,15.62,-0.43
156,156,0.69,0.05,-0.16,-12.94,15.62,-0.43
157,157,0.7,0.03,-0.15,-14.59,15.62,-0.43
158,158,0.71,-0.0,-0.13,-14.71,15.62,-0.43
159,159,0.73,-0.03,-0.12,-14.83,15.62,-0.43
160,160,0.78,-0.06,-0.11,-13.85,15.62,-0.43
161,161,0.84,-0.07,-0.11,-12.51,15.62,-0.43
162,162,0.89,-0.07,-0.11,-11.54,15.62,-0.43
163,163,0.94,-0.06,-0.11,-12.94,15.62,-0.43
164,164,0.96,-0.06,-0.1,-15.44,15.62,-0.43
165,165,0.98,-0.05,-0.1,-20.08,31.25,-0.43
166,166,0.98,-0.05,-0.08,-26.06,31.25,-0.43
167,167,0.99,-0.05,-0.08,-32.84,31.25,-0.43
168,168,1.0,-0.06,-0.07,-40.22,31.25,-0.43
169,169,1.03,-0.08,-0.04,-47.61,31.25,-0.43
170,170,1.05,-0.11,-0.03,-55.18,31.25,-0.49
171,171,1.09,-0.13,0.03,-62.32,31.25,-0.49
172,172,1.11,-0.17,0.05,-65.25,31.25,-0.49
173,173,1.12,-0.21,0.04,-65.19,31.25,-0.49
174,174,1.12,-0.26,0.01,-60.18,31.25,-0.49
175,175,1.1,-0.31,-0.01,-53.1,31.25,-0.49
176,176,1.07,-0.33,-0.03,-43.82,31.25,-0.49
177,177,1.04,-0.35,-0.06,-32.41,31.25,-0.49
178,178,1.0,-0.36,-0.07,-18.37,31.25,-0.49
179,179,0.99,-0.37,-0.08,-3.6,15.62,-0.49
180,180,1.02,-0.37,-0.08,12.94,0.0,-0.49
181,181,1.08,-0.37,-0.08,29.85,0.0,-0.49
182,182,1.15,-0.36,-0.07,47.85,-15.62,-0.49
183,183,1.23,-0.38,-0.09,67.87,-15.62,-0.49
184,184,1.26,-0.39,-0.11,88.56,-15.62,-0.49
185,185,1.28,-0.42,-0.14,109.68,-15.62,-0.49
186,186,1.25,-0.43,-0.17,129.76,-31.25,-0.49
187,187,1.19,-0.44,-0.19,148.19,-31.25,-0.49
188,188,1.11,-0.44,-0.2,164.92,-31.25,-0.49
189,189,1.04,-0.43,-0.2,177.25,-31.25,-0.49
190,190,0.98,-0.4,-0.21,185.91,-31.25,-0.49
191,191,0.94,-0.37,-0.2,191.59,-46.88,-0.49
192,192,0.91,-0.33,-0.19,192.5,-46.88,-0.49
193,193,0.88,-0.28,-0.17,190.67,-46.88,-0.49
194,194,0.88,-0.16,-0.17,159.97,-62.5,-0.49
195,195,0.91,-0.15,-0.2,147.64,-78.12,-0.49
196,196,0.96,-0.14,-0.22,134.16,-78.12,-0.49
197,197,1.02,-0.16,-0.25,120.61,-62.5,-0.49
198,198,1.07,-0.18,-0.27,108.34,-62.5,-0.49
199,199,1.11,-0.2,-0.28,94.73,-62.5,-0.49
200,200,1.14,-0.22,-0.29,81.48,-46.88,-0.49
201,201,1.16,-0.22,-0.28,65.92,-46.88,-0.55
202,202,1.17,-0.21,-0.28,47.42,-31.25,-0.55
203,203,1.17,-0.21,-0.27,32.1,-31.25,-0.55
204,204,1.16,-0.21,-0.27,12.27,-15.62,-0.55
205,205,1.14,-0.2,-0.26,-7.32,0.0,-0.55
206,206,1.12,-0.19,-0.25,-27.4,0.0,-0.55
207,207,1.1,-0.19,-0.25,-47.97,0.0,-0.55
208,208,1.09,-0.19,-0.24,-68.6,15.62,-0.55
209,209,1.07,-0.19,-0.23,-89.23,15.62,-0.55
210,210,1.04,-0.18,-0.2,-114.01,15.62,-0.55
211,211,1.01,-0.17,-0.16,-133.36,31.25,-0.55
212,212,0.96,-0.16,-0.15,-155.58,31.25,-0.55
213,213,0.92,-0.17,-0.15,-175.96,31.25,-0.55
214,214,0.89,-0.19,-0.17,-197.45,31.25,-0.55
215,215,0.88,-0.21,-0.18,-215.88,15.62,-0.55
216,216,0.89,-0.24,-0.18,-230.9,15.62,-0.55
217,217,0.9,-0.26,-0.2,-241.7,15.62,-0.55
218,218,0.93,-0.29,-0.22,-249.94,15.62,-0.55
219,219,0.96,-0.34,-0.23,-256.47,0.0,-0.55
220,220,0.98,-0.37,-0.25,-259.89,0.0,-0.55
221,221,0.97,-0.4,-0.25,-260.19,0.0,-0.55
222,222,0.96,-0.43,-0.26,-255.25,0.0,-0.55
223,223,0.94,-0.44,-0.25,-245.91,0.0,-0.55
224,224,0.93,-0.46,-0.24,-233.09,0.0,-0.55
225,225,0.93,-0.47,-0.23,-220.09,-15.62,-0.55
226,226,0.95,-0.49,-0.2,-191.47,-15.62,-0.55
227,227,0.99,-0.51,-0.2,-178.53,-15.62,-0.55
228,228,1.02,-0.52,-0.2,-166.69,-15.62,-0.55
229,229,1.05,-0.53,-0.2,-156.8,-15.62,-0.55
230,230,1.06,-0.55,-0.2,-147.95,-15.62,-0.55
231,231,1.06,-0.56,-0.19,-137.63,-15.62,-0.55
232,232,1.04,-0.58,-0.19,-127.75,-15.62,-0.55
233,233,1.03,-0.6,-0.22,-114.62,-15.62,-0.55
234,234,1.03,-0.6,-0.24,-100.46,-15.62,-0.61
235,235,1.03,-0.59,-0.24,-86.85,-15.62,-0.61
236,236,1.03,-0.58,-0.23,-73.85,-15.62,-0.61
237,237,1.01,-0.61,-0.26,-53.96,-15.62,-0.61
238,238,1.0,-0.64,-0.28,-36.74,-15.62,-0.61
239,239,0.98,-0.67,-0.3,-12.21,-15.62,-0.61
240,240,0.98,-0.67,-0.32,9.28,-15.62,-0.61
241,241,1.01,-0.62,-0.33,27.53,-15.62,-0.61
242,242,1.04,-0.56,-0.32,41.5,-15.62,-0.61
243,243,1.11,-0.42,-0.38,61.95,-31.25,-0.61
244,244,1.19,-0.59,-0.22,65.0,-31.25,-0.61
245,245,1.29,-0.45,-0.2,76.78,-31.25,-0.61
246,246,1.39,-0.33,-0.29,73.3,-31.25,-0.61
247,247,1.39,-0.26,-0.26,34.91,0.0,-0.61
248,248,1.18,-0.3,-0.22,16.91,15.62,-0.61
249,249,1.11,-0.3,-0.21,11.6,15.62,-0.61
250,250,1.07,-0.3,-0.19,8.73,0.0,-0.61
251,251,1.07,-0.29,-0.18,6.29,0.0,-0.61
252,252,1.13,-0.28,-0.15,5.0,-15.62,-0.61
253,253,1.21,-0.28,-0.12,5.25,-15.62,-0.61
254,254,1.31,-0.27,-0.1,6.84,-15.62,-0.61
255,255,1.43,-0.27,-0.07,10.74,-31.25,-0.61
256,256,1.53,-0.26,-0.04,15.38,-15.62,-0.61
257,257,1.61,-0.26,-0.01,20.75,-15.62,-0.61
258,258,1.66,-0.24,0.0,26.73,0.0,-0.61
259,259,1.67,-0.21,0.0,32.53,15.62,-0.61
260,260,1.62,-0.16,-0.01,38.21,15.62,-0.61
261,261,1.53,-0.09,-0.02,42.97,31.25,-0.61
262,262,1.42,-0.0,-0.02,46.57,31.25,-0.61
263,263,1.3,0.08,-0.02,47.67,46.88,-0.61
264,264,1.2,0.15,-0.04,44.98,46.88,-0.67
265,265,1.1,0.19,-0.04,37.72,46.88,-0.67
266,266,1.02,0.21,-0.04,28.69,46.88,-0.67
267,267,0.91,0.22,-0.03,18.62,46.88,-0.67
268,268,0.83,0.19,-0.03,12.94,46.88,-0.67
269,269,0.76,0.15,-0.06,2.2,46.88,-0.67
270,270,0.72,0.14,-0.04,-0.55,46.88,-0.67
271,271,0.68,0.12,-0.03,-4.03,31.25,-0.67
272,272,0.67,0.11,-0.06,-5.92,31.25,-0.67
273,273,0.65,0.12,-0.07,-7.45,31.25,-0.67
274,274,0.64,0.21,-0.11,-8.79,15.62,-0.67
275,275,0.63,0.23,-0.12,-7.14,15.62,-0.67
276,276,0.63,0.24,-0.12,-5.92,15.62,-0.67
277,277,0.63,0.22,-0.13,-4.94,15.62,-0.67
278,278,0.64,0.17,-0.13,-4.82,0.0,-0.67
279,279,0.67,0.13,-0.12,-4.52,0.0,-0.67
280,280,0.72,0.09,-0.11,-4.33,0.0,-0.67
281,281,0.78,0.07,-0.07,-4.33,0.0,-0.67
282,282,0.85,0.06,-0.03,-4.88,0.0,-0.67
283,283,0.9,0.05,-0.01,-4.88,0.0,-0.67
284,284,0.94,0.05,-0.0,-6.04,0.0,-0.67
285,285,0.97,0.03,0.01,-6.47,0.0,-0.67
286,286,0.99,0.02,0.0,-6.96,0.0,-0.67
287,287,1.02,0.0,-0.0,-6.84,0.0,-0.67
288,288,1.05,-0.01,-0.01,-5.37,0.0,-0.67
289,289,1.09,-0.02,-0.01,-5.68,0.0,-0.67
290,290,1.13,-0.03,0.0,-5.31,0.0,-0.67
291,291,1.17,-0.03,0.01,-6.35,0.0,-0.67
292,292,1.2,-0.05,0.02,-6.96,0.0,-0.67
293,293,1.23,-0.07,0.04,-7.87,0.0,-0.67
294,294,1.27,-0.1,0.05,-8.91,15.62,-0.67
295,295,1.33,-0.14,0.06,-9.52,15.62,-0.67
296,296,1.36,-0.18,0.07,-11.23,15.62,-0.67
297,297,1.39,-0.22,0.05,-11.35,15.62,-0.73
298,298,1.4,-0.28,0.03,-9.34,15.62,-0.73
299,299,1.39,-0.32,0.01,-6.41,15.62,-0.73
300,300,1.35,-0.36,-0.02,-1.95,31.25,-0.73
301,301,1.29,-0.38,-0.05,3.91,31.25,-0.73
302,302,1.21,-0.38,-0.06,9.7,31.25,-0.73
303,303,1.14,-0.37,-0.08,13.92,31.25,-0.73
304,304,1.09,-0.35,-0.09,15.87,15.62,-0.73
305,305,1.05,-0.31,-0.1,15.44,15.62,-0.73
306,306,1.05,-0.28,-0.08,13.67,0.0,-0.73
307,307,1.08,-0.25,-0.08,9.58,-15.62,-0.73
308,308,1.17,-0.24,-0.08,4.58,-15.62,-0.73
309,309,1.28,-0.25,-0.09,0.61,-31.25,-0.73
310,310,1.38,-0.26,-0.12,-2.75,-31.25,-0.73
311,311,1.45,-0.32,-0.15,-5.13,-31.25,-0.73
312,312,1.46,-0.37,-0.18,-4.46,-15.62,-0.73
313,313,1.41,-0.42,-0.22,-2.75,-15.62,-0.73
314,314,1.22,-0.47,-0.25,5.98,0.0,-0.73
315,315,1.15,-0.46,-0.25,10.5,-15.62,-0.73
316,316,1.09,-0.45,-0.23,14.22,-15.62,-0.73
317,317,1.07,-0.45,-0.22,18.8,-31.25,-0.73
318,318,1.07,-0.45,-0.21,23.38,-31.25,-0.73
319,319,1.08,-0.45,-0.21,28.08,-31.25,-0.73
320,320,1.1,-0.46,-0.22,34.06,-31.25,-0.73
321,321,1.12,-0.47,-0.24,39.55,-31.25,-0.73
322,322,1.13,-0.48,-0.28,43.58,-31.25,-0.73
323,323,1.13,-0.49,-0.29,47.55,-31.25,-0.73
324,324,1.13,-0.49,-0.32,49.87,-31.25,-0.73
325,325,1.07,-0.48,-0.33,45.9,-15.62,-0.73
326,326,0.99,-0.41,-0.28,25.57,0.0,-0.73
327,327,0.97,-0.38,-0.27,12.08,0.0,-0.73
328,328,0.95,-0.36,-0.25,-5.37,0.0,-0.79
329,329,0.95,-0.35,-0.24,-23.07,0.0,-0.79
330,330,0.96,-0.35,-0.25,-40.16,0.0,-0.79
331,331,0.97,-0.37,-0.26,-58.04,0.0,-0.79
332,332,0.99,-0.39,-0.27,-69.03,0.0,-0.79
333,333,0.99,-0.42,-0.28,-77.88,0.0,-0.79
334,334,0.98,-0.44,-0.29,-85.02,0.0,-0.79
335,335,0.96,-0.46,-0.29,-90.94,15.62,-0.79
336,336,0.94,-0.48,-0.28,-93.69,15.62,-0.79
337,337,0.91,-0.49,-0.27,-93.87,15.62,-0.79
338,338,0.9,-0.53,-0.27,-91.92,0.0,-0.79
339,339,0.9,-0.56,-0.26,-86.55,0.0,-0.79
340,340,0.91,-0.6,-0.26,-76.29,0.0,-0.79
341,341,0.92,-0.63,-0.26,-63.42,0.0,-0.79
342,342,0.94,-0.65,-0.27,-46.57,0.0,-0.79
343,343,0.94,-0.66,-0.28,-27.71,0.0,-0.79
344,344,0.93,-0.66,-0.28,-8.3,0.0,-0.79
345,345,0.92,-0.66,-0.28,9.95,0.0,-0.79
346,346,0.91,-0.65,-0.28,23.93,0.0,-0.79
347,347,0.91,-0.63,-0.28,36.19,0.0,-0.79
348,348,0.92,-0.6,-0.29,44.43,-15.62,-0.79
349,349,0.95,-0.56,-0.3,50.66,-15.62,-0.79
350,350,0.98,-0.55,-0.32,53.59,-15.62,-0.79
351,351,1.02,-0.54,-0.32,55.97,-15.62,-0.79
352,352,1.11,-0.52,-0.33,58.59,-15.62,-0.79
353,353,1.16,-0.5,-0.31,59.88,-15.62,-0.79
354,354,1.2,-0.49,-0.31,59.88,0.0,-0.79
355,355,1.25,-0.46,-0.29,60.12,0.0,-0.79
356,356,1.28,-0.43,-0.29,58.35,0.0,-0.79
357,357,1.32,-0.4,-0.3,54.14,0.0,-0.79
358,358,1.35,-0.37,-0.29,49.19,0.0,-0.79
359,359,1.37,-0.34,-0.29,41.26,15.62,-0.79
360,360,1.38,-0.3,-0.28,31.62,15.62,-0.79
361,361,1.38,-0.27,-0.27,17.15,15.62,-0.79
362,362,1.36,-0.23,-0.25,1.53,31.25,-0.85
363,363,1.36,-0.19,-0.24,-17.64,31.25,-0.85
364,364,1.34,-0.31,-0.11,-1.46,31.25,-0.85
365,365,1.33,-0.18,-0.45,-44.31,15.62,-0.85
366,366,1.45,-0.36,-0.09,-52.92,15.62,-0.85
367,367,1.5,-0.28,-0.15,-53.83,15.62,-0.85
368,368,1.5,-0.27,-0.21,-70.13,31.25,-0.85
369,369,1.43,-0.32,-0.14,-76.84,31.25,-0.85
370,370,1.34,-0.31,-0.17,-83.92,46.88,-0.85
371,371,1.25,-0.3,-0.16,-88.56,46.88,-0.85
372,372,1.16,-0.3,-0.11,-92.53,31.25,-0.85
373,373,1.15,-0.28,-0.08,-95.4,15.62,-0.85
374,374,1.2,-0.26,-0.05,-98.75,0.0,-0.85
375,375,1.45,-0.26,0.01,-104.68,-15.62,-0.85
376,376,1.72,-0.26,0.05,-96.37,-15.62,-0.85
377,377,1.8,-0.25,0.03,-86.06,-15.62,-0.85
378,378,1.85,-0.24,0.01,-71.17,0.0,-0.85
379,379,1.86,-0.2,-0.0,-53.34,0.0,-0.85
380,380,1.82,-0.16,0.01,-36.93,15.62,-0.85
381,381,1.71,-0.06,0.08,-25.33,31.25,-0.85
382,382,1.57,0.05,0.11,-18.55,46.88,-0.85
383,383,1.41,0.16,0.12,-15.93,46.88,-0.85
384,384,1.29,0.23,0.14,-18.43,46.88,-0.85
385,385,1.16,0.28,0.13,-26.31,62.5,-0.85
386,386,1.07,0.29,0.13,-36.01,46.88,-0.85
387,387,0.98,0.32,0.1,-43.64,46.88,-0.85
388,388,0.92,0.34,0.07,-47.12,46.88,-0.85
389,389,0.87,0.35,0.05,-49.13,46.88,-0.85
390,390,0.84,0.35,0.03,-47.06,46.88,-0.85
391,391,0.84,0.32,0.0,-43.27,31.25,-0.85
392,392,0.82,0.33,-0.01,-37.35,31.25,-0.85
393,393,0.8,0.34,-0.03,-26.18,31.25,-0.85
394,394,0.74,0.34,-0.08,-0.18,31.25,-0.92
395,395,0.71,0.33,-0.09,12.88,31.25,-0.92
396,396,0.67,0.3,-0.09,26.0,15.62,-0.92
397,397,0.67,0.26,-0.1,38.82,15.62,-0.92
398,398,0.67,0.23,-0.09,49.62,15.62,-0.92
399,399,0.71,0.21,-0.07,65.61,0.0,-0.92
400,400,0.73,0.21,-0.06,68.85,0.0,-0.92
401,401,0.75,0.2,-0.05,68.54,0.0,-0.92
402,402,0.76,0.19,-0.04,66.04,0.0,-0.92
403,403,0.78,0.16,-0.04,60.55,0.0,-0.92
404,404,0.8,0.13,-0.03,53.89,0.0,-0.92
405,405,0.83,0.09,-0.05,45.65,-15.62,-0.92
406,406,0.87,0.06,-0.05,37.48,-15.62,-0.92
407,407,0.98,0.01,-0.03,19.59,-15.62,-0.92
408,408,1.04,-0.02,-0.02,8.79,-15.62,-0.92
409,409,1.1,-0.03,-0.01,-0.85,-15.62,-0.92
410,410,1.18,-0.06,0.01,-8.73,-15.62,-0.92
411,411,1.25,-0.09,0.02,-16.42,-15.62,-0.92
412,412,1.35,-0.14,0.02,-20.81,-15.62,-0.92
413,413,1.43,-0.2,0.02,-22.46,-15.62,-0.92
414,414,1.49,-0.25,0.02,-20.45,0.0,-0.92
415,415,1.52,-0.34,-0.0,-10.99,0.0,-0.92
416,416,1.5,-0.38,-0.03,-2.26,15.62,-0.92
417,417,1.46,-0.42,-0.07,9.77,15.62,-0.92
418,418,1.34,-0.32,-0.26,-8.06,15.62,-0.92
419,419,1.56,0.27,-0.74,-191.41,0.0,-0.92
420,420,1.43,0.05,0.1,-106.75,62.5,-0.92
421,421,1.25,-0.99,0.07,48.89,31.25,-0.92
422,422,1.31,-0.62,0.11,70.13,46.88,-0.92
423,423,1.16,0.27,-0.36,23.68,0.0,-0.92
424,424,1.23,0.37,-0.75,-115.17,-78.12,-0.98
425,425,1.72,-0.37,-0.03,-86.12,-78.12,-0.98
426,426,2.04,-0.9,0.07,15.81,-31.25,-0.98
427,427,1.64,-0.3,-0.24,-42.6,31.25,-0.98
428,428,1.55,-0.62,-0.24,-40.89,78.12,-0.98
429,429,1.29,-0.66,-0.14,-33.39,62.5,-0.98
430,430,1.25,-0.52,-0.13,-28.14,62.5,-0.98
431,431,1.1,-0.77,-0.1,10.86,31.25,-0.98
432,432,1.12,-0.74,-0.09,37.72,15.62,-0.98
433,433,1.15,-0.66,-0.15,55.54,0.0,-0.98
434,434,1.24,-0.6,-0.11,69.7,0.0,-0.98
435,435,1.28,-0.37,-0.27,51.51,0.0,-0.98
436,436,1.33,-0.22,-0.34,10.62,0.0,-0.98
437,437,1.36,-0.3,-0.32,-22.46,15.62,-0.98
438,438,1.32,-0.48,-0.32,-44.25,15.62,-0.98
439,439,1.23,-0.7,-0.25,-41.81,31.25,-0.98
440,440,1.17,-0.83,-0.21,-26.86,31.25,-0.98
441,441,1.11,-0.85,-0.21,-6.53,31.25,-0.98
442,442,1.02,-0.63,-0.21,2.2,31.25,-0.98
443,443,0.97,-0.53,-0.26,-13.98,31.25,-0.98
444,444,0.88,-0.53,-0.27,-35.46,31.25,-0.98
445,445,0.84,-0.62,-0.27,-49.44,31.25,-0.98
446,446,0.8,-0.75,-0.22,-45.1,15.62,-0.98
447,447,0.78,-0.86,-0.18,-24.23,15.62,-0.98
448,448,0.74,-0.96,-0.16,8.48,15.62,-0.98
449,449,0.72,-0.98,-0.14,39.43,15.62,-0.98
450,450,0.71,-0.9,-0.13,74.95,15.62,-0.98
451,451,0.71,-0.83,-0.14,88.2,0.0,-0.98
452,452,0.71,-0.76,-0.15,98.39,0.0,-0.98
453,453,0.74,-0.71,-0.15,101.75,0.0,-1.04
454,454,0.77,-0.65,-0.15,99.06,0.0,-1.04
455,455,0.79,-0.59,-0.17,90.33,0.0,-1.04
456,456,0.83,-0.57,-0.17,79.41,0.0,-1.04
457,457,0.87,-0.59,-0.18,69.4,0.0,-1.04
458,458,0.91,-0.61,-0.19,61.52,0.0,-1.04
459,459,0.98,-0.63,-0.2,57.74,0.0,-1.04
460,460,1.04,-0.63,-0.2,53.83,-15.62,-1.04
461,461,1.12,-0.62,-0.19,50.54,-15.62,-1.04
462,462,1.19,-0.59,-0.19,45.23,-15.62,-1.04
463,463,1.28,-0.56,-0.22,38.15,-15.62,-1.04
464,464,1.35,-0.53,-0.21,29.42,0.0,-1.04
465,465,1.39,-0.53,-0.22,23.32,0.0,-1.04
466,466,1.43,-0.54,-0.2,19.53,0.0,-1.04
467,467,1.44,-0.55,-0.2,20.69,0.0,-1.04
468,468,1.44,-0.54,-0.17,24.17,0.0,-1.04
469,469,1.42,-0.53,-0.16,29.24,0.0,-1.04
470,470,1.39,-0.5,-0.14,35.28,0.0,-1.04
471,471,1.37,-0.46,-0.12,39.61,0.0,-1.04
472,472,1.36,-0.43,-0.11,43.82,0.0,-1.04
473,473,1.38,-0.41,-0.1,46.45,0.0,-1.04
474,474,1.45,-0.39,-0.1,48.34,-15.62,-1.04
475,475,1.53,-0.38,-0.11,48.65,-15.62,-1.04
476,476,1.6,-0.36,-0.12,47.36,-15.62,-1.04
477,477,1.63,-0.35,-0.12,45.9,0.0,-1.04
478,478,1.58,-0.41,-0.12,55.85,0.0,-1.04
479,479,1.56,-0.3,-0.34,44.43,15.62,-1.04
480,480,1.51,-0.43,-0.06,53.83,15.62,-1.04
481,481,1.4,-0.27,-0.2,52.61,15.62,-1.04
482,482,1.34,-0.23,-0.19,47.24,15.62,-1.04
483,483,1.27,-0.22,-0.15,42.3,15.62,-1.04
484,484,1.3,-0.19,-0.2,34.42,0.0,-1.04
485,485,1.36,-0.2,-0.14,26.79,0.0,-1.04
486,486,1.44,-0.2,-0.12,21.67,0.0,-1.04
487,487,1.54,-0.21,-0.11,19.65,-15.62,-1.1
488,488,1.64,-0.23,-0.1,19.29,-15.62,-1.1
489,489,1.75,-0.25,-0.07,21.91,-15.62,-1.1
490,490,1.89,-0.25,-0.05,25.15,-15.62,-1.1
491,491,2.14,-0.14,0.01,36.56,15.62,-1.1
492,492,2.15,-0.07,0.01,44.43,31.25,-1.1
493,493,2.03,-0.0,-0.02,52.37,46.88,-1.1
494,494,1.88,0.05,-0.03,58.04,78.12,-1.1
495,495,1.67,0.16,0.02,56.58,93.75,-1.1
496,496,1.5,0.28,0.08,46.69,93.75,-1.1
497,497,1.31,0.4,0.1,31.62,93.75,-1.1
498,498,1.06,0.53,0.11,-22.52,109.38,-1.1
499,499,0.96,0.56,0.14,-48.83,109.38,-1.1
500,500,0.87,0.5,0.11,-74.1,93.75,-1.1
501,501,0.79,0.46,0.11,-100.04,93.75,-1.1
502,502,0.66,0.36,0.11,-123.72,93.75,-1.1
503,503,0.62,0.32,0.08,-126.1,78.12,-1.1
504,504,0.6,0.27,0.05,-121.34,78.12,-1.1
505,505,0.59,0.23,0.03,-113.4,62.5,-1.1
506,506,0.61,0.18,-0.02,-101.14,46.88,-1.1
507,507,0.62,0.16,-0.05,-87.65,46.88,-1.1
508,508,0.67,0.19,-0.12,-51.51,31.25,-1.1
509,509,0.69,0.21,-0.13,-35.77,31.25,-1.1
510,510,0.71,0.23,-0.12,-22.89,31.25,-1.1
511,511,0.75,0.24,-0.11,-12.63,15.62,-1.1
512,512,0.79,0.21,-0.07,-3.11,15.62,-1.1
513,513,0.83,0.18,-0.04,4.15,15.62,-1.1
514,514,0.86,0.15,-0.0,10.68,15.62,-1.1
515,515,0.9,0.12,0.03,16.24,15.62,-1.1
516,516,0.92,0.08,0.04,21.42,0.0,-1.1
517,517,0.95,0.05,0.05,23.5,0.0,-1.16
518,518,0.98,0.03,0.06,24.78,0.0,-1.16
519,519,1.0,0.01,0.06,22.95,0.0,-1.16
520,520,1.02,-0.0,0.05,20.02,0.0,-1.16
521,521,1.04,-0.0,0.04,15.2,0.0,-1.16
522,522,1.07,-0.0,0.04,7.75,0.0,-1.16
523,523,1.1,0.01,0.04,-1.4,0.0,-1.16
524,524,1.13,0.0,0.04,-11.84,0.0,-1.16
525,525,1.16,-0.01,0.04,-22.09,0.0,-1.16
526,526,1.2,-0.04,0.04,-30.09,0.0,-1.16
527,527,1.3,-0.15,0.01,-39.92,0.0,-1.16
528,528,1.34,-0.21,-0.01,-37.66,0.0,-1.16
529,529,1.38,-0.27,-0.04,-32.35,0.0,-1.16
530,530,1.42,-0.34,-0.07,-23.44,0.0,-1.16
531,531,1.46,-0.38,-0.09,-12.63,0.0,-1.16
532,532,1.49,-0.41,-0.1,-0.92,0.0,-1.16
533,533,1.53,-0.44,-0.14,11.35,0.0,-1.16
534,534,1.56,-0.41,-0.22,11.66,0.0,-1.16
535,535,1.59,0.41,-1.26,-241.58,-31.25,-1.16
536,536,1.41,-0.02,0.24,-99.3,-15.62,-1.16
537,537,1.54,-1.02,-0.04,36.44,-15.62,-1.16
538,538,1.68,-1.3,-0.29,32.9,31.25,-1.16
539,539,1.54,-0.71,0.03,69.76,62.5,-1.16
540,540,1.04,0.45,-0.82,-68.79,15.62,-1.16
541,541,1.1,-0.01,-0.42,-150.09,-46.88,-1.16
542,542,1.44,-0.79,0.04,-75.5,-31.25,-1.16
543,543,1.61,-1.2,0.61,53.77,31.25,-1.16
544,544,1.45,-0.96,-0.86,2.69,15.62,-1.16
545,545,1.47,-0.11,-0.08,0.37,0.0,-1.16
546,546,1.66,-0.2,-0.22,23.01,31.25,-1.16
547,547,1.58,-0.64,-0.25,17.52,31.25,-1.16
548,548,1.56,-0.83,-0.16,40.04,31.25,-1.16
549,549,1.47,-0.83,-0.29,78.31,15.62,-1.22
550,550,1.4,-0.75,-0.33,94.18,-15.62,-1.22
551,551,1.55,-0.7,-0.24,113.46,-15.62,-1.22
552,552,1.56,-0.5,-0.4,100.34,0.0,-1.22
553,553,1.49,-0.31,-0.37,55.36,15.62,-1.22
554,554,1.4,-0.33,-0.35,18.37,15.62,-1.22
555,555,1.3,-0.46,-0.23,-13.73,15.62,-1.22
556,556,1.2,-0.54,-0.12,-34.79,15.62,-1.22
557,557,1.1,-0.66,-0.17,-38.15,15.62,-1.22
558,558,1.05,-0.67,-0.23,-37.29,0.0,-1.22
559,559,1.05,-0.58,-0.27,-36.01,0.0,-1.22
560,560,1.05,-0.49,-0.28,-39.12,15.62,-1.22
561,561,0.95,-0.47,-0.38,-65.06,0.0,-1.22
562,562,0.91,-0.55,-0.4,-76.54,0.0,-1.22
563,563,0.87,-0.65,-0.38,-76.17,0.0,-1.22
564,564,0.83,-0.79,-0.35,-62.13,15.62,-1.22
565,565,0.74,-0.97,-0.26,-13.85,15.62,-1.22
566,566,0.71,-0.99,-0.23,12.63,15.62,-1.22
567,567,0.69,-0.99,-0.21,33.51,0.0,-1.22
568,568,0.68,-0.96,-0.21,49.74,0.0,-1.22
569,569,0.71,-0.95,-0.2,63.72,0.0,-1.22
570,570,0.74,-0.93,-0.19,73.24,0.0,-1.22
571,571,0.79,-0.9,-0.2,78.0,0.0,-1.22
572,572,0.82,-0.88,-0.22,80.81,0.0,-1.22
573,573,0.86,-0.89,-0.22,84.53,0.0,-1.22
574,574,0.9,-0.92,-0.22,91.98,0.0,-1.22
575,575,0.97,-0.93,-0.23,102.6,0.0,-1.22
576,576,1.05,-0.91,-0.22,113.83,-15.62,-1.22
577,577,1.12,-0.85,-0.22,123.72,0.0,-1.22
578,578,1.2,-0.77,-0.21,131.04,0.0,-1.22
579,579,1.27,-0.7,-0.21,132.75,0.0,-1.22
580,580,1.35,-0.64,-0.2,129.76,0.0,-1.22
581,581,1.4,-0.6,-0.2,124.82,15.62,-1.22
582,582,1.45,-0.56,-0.19,119.69,15.62,-1.28
583,583,1.48,-0.53,-0.18,116.76,15.62,-1.28
584,584,1.51,-0.5,-0.17,117.8,15.62,-1.28
585,585,1.53,-0.49,-0.15,119.57,31.25,-1.28
586,586,1.58,-0.48,-0.15,124.57,31.25,-1.28
587,587,1.64,-0.47,-0.15,129.03,31.25,-1.28
588,588,1.74,-0.43,-0.13,130.98,31.25,-1.28
589,589,1.83,-0.38,-0.13,130.07,31.25,-1.28
590,590,1.89,-0.32,-0.11,124.27,46.88,-1.28
591,591,1.89,-0.25,-0.11,115.66,62.5,-1.28
592,592,1.82,-0.19,-0.12,105.22,78.12,-1.28
593,593,1.67,-0.15,-0.11,93.02,93.75,-1.28
594,594,1.53,-0.13,-0.12,81.6,93.75,-1.28
595,595,1.4,-0.12,-0.11,69.95,93.75,-1.28
596,596,1.31,-0.19,-0.05,96.31,93.75,-1.28
597,597,1.24,-0.05,-0.16,46.08,62.5,-1.28
598,598,1.32,-0.23,-0.01,51.76,62.5,-1.28
599,599,1.4,-0.13,-0.03,54.14,62.5,-1.28
600,600,1.54,-0.1,-0.12,45.72,46.88,-1.28
601,601,1.64,-0.13,-0.02,35.71,46.88,-1.28
602,602,1.85,-0.09,-0.07,27.65,31.25,-1.28
603,603,2.07,-0.1,-0.05,20.02,31.25,-1.28
604,604,2.26,-0.1,0.04,9.28,46.88,-1.28
605,605,2.38,-0.07,0.06,-0.37,62.5,-1.28
606,606,2.34,0.0,0.09,-9.52,78.12,-1.28
607,607,2.2,0.09,0.09,-14.1,93.75,-1.28
608,608,1.99,0.17,0.04,-15.26,109.38,-1.28
609,609,1.82,0.25,0.08,-21.97,109.38,-1.28
610,610,1.62,0.37,0.15,-35.95,125.0,-1.28
611,611,1.47,0.46,0.18,-46.81,125.0,-1.28
612,612,1.31,0.52,0.2,-53.1,125.0,-1.28
613,613,1.18,0.54,0.27,-62.44,125.0,-1.28
614,614,1.06,0.47,0.25,-74.04,125.0,-1.28
615,615,0.96,0.43,0.23,-86.18,125.0,-1.28
616,616,0.85,0.39,0.26,-89.36,109.38,-1.34
617,617,0.75,0.29,0.21,-88.32,109.38,-1.34
618,618,0.71,0.26,0.18,-87.4,109.38,-1.34
619,619,0.68,0.24,0.17,-84.59,93.75,-1.34
620,620,0.67,0.24,0.12,-76.23,78.12,-1.34
621,621,0.69,0.26,0.07,-65.25,62.5,-1.34
622,622,0.69,0.32,0.04,-53.53,62.5,-1.34
623,623,0.69,0.39,0.01,-41.99,46.88,-1.34
624,624,0.66,0.48,-0.02,-35.58,46.88,-1.34
625,625,0.64,0.55,-0.05,-31.19,31.25,-1.34
626,626,0.61,0.58,-0.06,-27.16,31.25,-1.34
627,627,0.61,0.57,-0.07,-23.68,15.62,-1.34
628,628,0.64,0.53,-0.05,-18.98,0.0,-1.34
629,629,0.68,0.48,-0.03,-14.28,0.0,-1.34
630,630,0.76,0.42,0.0,-6.96,-15.62,-1.34
631,631,0.81,0.37,0.03,-0.92,-15.62,-1.34
632,632,0.86,0.31,0.05,5.13,-15.62,-1.34
633,633,0.89,0.26,0.07,10.01,-15.62,-1.34
634,634,0.92,0.2,0.07,12.7,-31.25,-1.34
635,635,0.94,0.15,0.07,15.5,-31.25,-1.34
636,636,0.96,0.11,0.06,18.07,-31.25,-1.34
637,637,0.99,0.07,0.04,18.43,-31.25,-1.34
638,638,1.02,0.04,0.02,18.8,-46.88,-1.34
639,639,1.06,0.03,0.01,18.01,-46.88,-1.34
640,640,1.1,0.02,-0.01,15.38,-46.88,-1.34
641,641,1.14,0.01,-0.03,8.85,-46.88,-1.34
642,642,1.18,0.01,-0.03,0.85,-46.88,-1.34
643,643,1.22,-0.02,-0.02,-9.4,-62.5,-1.34
644,644,1.27,-0.05,-0.02,-18.86,-62.5,-1.34
645,645,1.32,-0.1,-0.01,-25.39,-62.5,-1.34
646,646,1.37,-0.17,-0.01,-29.54,-62.5,-1.34
647,647,1.41,-0.23,-0.02,-30.88,-62.5,-1.34
648,648,1.43,-0.26,-0.03,-29.54,-62.5,-1.34
649,649,1.43,-0.28,-0.04,-25.51,-62.5,-1.34
650,650,1.43,-0.28,-0.06,-20.81,-46.88,-1.4
651,651,1.42,-0.26,-0.08,-24.66,-62.5,-1.4
652,652,1.44,0.98,-1.53,-358.22,-93.75,-1.4
653,653,1.39,0.55,0.53,-191.22,-31.25,-1.4
654,654,1.48,-1.25,-0.05,21.79,-109.38,-1.4
655,655,1.79,-1.44,-0.32,-19.35,-62.5,-1.4
656,656,1.92,-0.71,0.13,29.24,-31.25,-1.4
657,657,1.98,-0.1,0.07,72.02,15.62,-1.4
658,658,1.78,0.37,-0.08,2.69,31.25,-1.4
659,659,1.45,0.61,-0.88,-195.74,-31.25,-1.4
660,660,1.53,-0.6,0.05,-157.59,-78.12,-1.4
661,661,1.76,-1.52,0.51,3.78,-31.25,-1.4
662,662,1.54,-1.28,-0.79,45.47,46.88,-1.4
663,663,1.39,-0.43,0.03,3.72,15.62,-1.4
664,664,1.3,-0.03,-0.2,24.84,0.0,-1.4
665,665,1.32,-0.33,-0.08,15.81,15.62,-1.4
666,666,1.21,-0.7,-0.01,70.37,31.25,-1.4
667,667,1.08,-0.77,-0.1,101.87,0.0,-1.4
668,668,1.0,-0.67,-0.09,126.71,-46.88,-1.4
669,669,1.12,-0.47,-0.16,151.98,-78.12,-1.4
670,670,1.37,-0.35,-0.21,160.03,-62.5,-1.4
671,671,1.47,-0.04,-0.37,119.02,-46.88,-1.4
672,672,1.48,0.1,-0.43,60.0,-46.88,-1.4
673,673,1.47,-0.01,-0.45,17.15,-46.88,-1.4
674,674,1.38,-0.52,-0.33,-24.6,-31.25,-1.4
675,675,1.36,-0.67,-0.28,-14.47,-31.25,-1.4
676,676,1.34,-0.66,-0.29,-2.14,-15.62,-1.4
677,677,1.28,-0.52,-0.29,1.1,-15.62,-1.4
678,678,1.24,-0.39,-0.32,-16.05,-15.62,-1.4
679,679,1.11,-0.35,-0.36,-62.62,0.0,-1.4
680,680,1.07,-0.44,-0.36,-81.97,-15.62,-1.4
681,681,1.02,-0.56,-0.33,-79.65,0.0,-1.46
682,682,0.98,-0.66,-0.31,-56.27,0.0,-1.46
683,683,0.92,-0.75,-0.29,-25.45,0.0,-1.46
684,684,0.89,-0.76,-0.3,7.63,0.0,-1.46
685,685,0.84,-0.7,-0.31,34.91,15.62,-1.46
686,686,0.8,-0.62,-0.31,54.63,15.62,-1.46
687,687,0.78,-0.57,-0.33,65.61,0.0,-1.46
688,688,0.77,-0.55,-0.33,70.8,0.0,-1.46
689,689,0.79,-0.54,-0.33,73.12,0.0,-1.46
690,690,0.8,-0.53,-0.34,72.08,0.0,-1.46
691,691,0.83,-0.53,-0.34,69.58,0.0,-1.46
692,692,0.85,-0.54,-0.32,67.32,15.62,-1.46
693,693,0.89,-0.55,-0.31,66.41,15.62,-1.46
694,694,0.92,-0.54,-0.3,65.73,15.62,-1.46
695,695,0.94,-0.5,-0.28,65.06,15.62,-1.46
696,696,0.97,-0.47,-0.28,61.71,31.25,-1.46
697,697,1.0,-0.44,-0.28,56.46,31.25,-1.46
698,698,1.04,-0.41,-0.29,49.8,31.25,-1.46
699,699,1.07,-0.4,-0.29,42.97,31.25,-1.46
700,700,1.15,-0.43,-0.28,35.1,31.25,-1.46
701,701,1.25,-0.46,-0.25,40.34,31.25,-1.46
702,702,1.32,-0.46,-0.25,46.08,46.88,-1.46
703,703,1.37,-0.45,-0.24,49.01,46.88,-1.46
704,704,1.4,-0.41,-0.23,50.66,46.88,-1.46
705,705,1.44,-0.33,-0.2,46.51,62.5,-1.46
706,706,1.41,-0.3,-0.18,40.04,62.5,-1.46
707,707,1.38,-0.26,-0.15,31.74,78.12,-1.46
708,708,1.36,-0.23,-0.12,23.5,62.5,-1.46
709,709,1.36,-0.22,-0.1,16.11,62.5,-1.46
710,710,1.4,-0.23,-0.07,9.64,62.5,-1.46
711,711,1.48,-0.25,-0.05,5.25,46.88,-1.46
712,712,1.69,-0.31,-0.02,5.49,46.88,-1.53
713,713,1.75,-0.33,0.01,13.61,46.88,-1.53
714,714,1.73,-0.29,0.06,20.94,62.5,-1.53
715,715,1.7,-0.39,-0.13,44.68,62.5,-1.53
716,716,1.46,-0.2,0.1,85.63,93.75,-1.53
717,717,1.37,-0.14,0.16,81.12,93.75,-1.53
718,718,1.32,-0.04,0.11,73.3,93.75,-1.53
719,719,1.26,0.01,0.09,53.96,78.12,-1.53
720,720,1.32,0.03,0.08,39.37,62.5,-1.53
721,721,1.39,0.02,0.08,29.36,62.5,-1.53
722,722,1.5,0.03,0.06,16.24,46.88,-1.53
723,723,1.62,0.05,0.05,3.05,46.88,-1.53
724,724,1.74,0.09,0.08,-6.29,46.88,-1.53
725,725,1.8,0.11,0.09,-14.53,46.88,-1.53
726,726,1.78,0.12,0.1,-24.23,62.5,-1.53
727,727,1.54,0.14,0.1,-38.94,78.12,-1.53
728,728,1.26,0.17,0.15,-62.81,78.12,-1.53
729,729,1.15,0.18,0.16,-75.26,78.12,-1.53
730,730,1.1,0.19,0.16,-94.85,78.12,-1.53
731,731,1.03,0.22,0.21,-110.66,78.12,-1.53
732,732,0.96,0.23,0.22,-124.63,78.12,-1.53
733,733,0.89,0.23,0.23,-138.12,78.12,-1.53
734,734,0.83,0.23,0.24,-150.02,78.12,-1.53
735,735,0.77,0.24,0.23,-157.71,62.5,-1.53
736,736,0.71,0.24,0.22,-162.23,62.5,-1.53
737,737,0.68,0.23,0.19,-162.78,46.88,-1.53
738,738,0.64,0.21,0.11,-147.64,31.25,-1.53
739,739,0.64,0.2,0.05,-135.74,15.62,-1.59
740,740,0.64,0.18,0.01,-118.65,15.62,-1.59
741,741,0.66,0.18,-0.03,-99.24,0.0,-1.59
742,742,0.68,0.19,-0.05,-78.19,0.0,-1.59
743,743,0.72,0.19,-0.06,-57.25,0.0,-1.59
744,744,0.77,0.18,-0.06,-38.27,-15.62,-1.59
745,745,0.81,0.16,-0.04,-18.86,-15.62,-1.59
746,746,0.85,0.15,-0.02,-1.46,-15.62,-1.59
747,747,0.87,0.13,0.0,15.08,-15.62,-1.59
748,748,0.88,0.12,0.03,30.09,-15.62,-1.59
749,749,0.88,0.12,0.03,43.21,-15.62,-1.59
750,750,0.89,0.09,0.02,55.48,-15.62,-1.59
751,751,0.91,0.06,-0.0,65.49,-15.62,-1.59
752,752,0.94,0.02,-0.03,74.71,-15.62,-1.59
753,753,0.96,-0.04,-0.07,82.95,-31.25,-1.59
754,754,1.0,-0.08,-0.11,88.56,-31.25,-1.59
755,755,1.02,-0.1,-0.12,91.61,-31.25,-1.59
756,756,1.05,-0.09,-0.11,90.03,-31.25,-1.59
757,757,1.07,-0.07,-0.11,81.67,-31.25,-1.59
758,758,1.09,-0.05,-0.1,70.43,-31.25,-1.59
759,759,1.12,-0.04,-0.09,54.38,-31.25,-1.59
760,760,1.14,-0.03,-0.09,36.62,-46.88,-1.59
761,761,1.18,-0.04,-0.07,20.87,-46.88,-1.59
762,762,1.23,-0.06,-0.08,5.49,-46.88,-1.59
763,763,1.56,0.02,-0.2,-59.2,-15.62,-1.59
764,764,1.36,0.88,-0.54,-322.75,-15.62,-1.59
765,765,1.24,-0.01,0.4,-108.76,-78.12,-1.59
766,766,1.69,-1.08,-0.17,-80.02,-46.88,-1.59
767,767,1.76,-0.75,0.04,-67.02,46.88,-1.59
768,768,1.67,-0.23,0.22,-14.4,78.12,-1.59
769,769,1.16,0.4,-0.68,-126.16,46.88,-1.59
770,770,1.02,0.26,-0.47,-259.83,-78.12,-1.59
771,771,1.5,-0.3,0.17,-215.52,-109.38,-1.59
772,772,2.12,-0.63,0.43,-114.2,0.0,-1.59
773,773,2.04,-0.33,-0.55,-205.44,62.5,-1.65
774,774,1.95,-0.52,0.12,-160.22,62.5,-1.65
775,775,1.95,-0.91,0.3,-57.62,93.75,-1.65
776,776,1.64,-0.63,-0.37,-66.28,140.62,-1.65
777,777,1.48,-0.36,0.08,-98.14,31.25,-1.65
778,778,1.75,-0.51,-0.01,-47.79,78.12,-1.65
779,779,1.69,-0.74,-0.08,-37.41,109.38,-1.65
780,780,1.5,-0.7,0.02,-31.74,109.38,-1.65
781,781,1.51,-0.65,-0.02,-6.23,109.38,-1.65
782,782,1.36,-0.72,-0.01,10.25,93.75,-1.65
783,783,1.34,-0.76,-0.01,41.87,109.38,-1.65
784,784,1.13,-0.76,0.11,56.88,93.75,-1.65
785,785,0.99,-0.65,0.08,73.97,46.88,-1.65
786,786,1.01,-0.58,-0.05,92.96,31.25,-1.65
787,787,1.04,-0.53,-0.1,94.12,31.25,-1.65
788,788,1.05,-0.38,-0.2,81.73,31.25,-1.65
789,789,1.1,-0.15,-0.31,43.09,15.62,-1.65
790,790,1.19,-0.03,-0.36,0.12,0.0,-1.65
791,791,1.22,-0.08,-0.38,-32.78,0.0,-1.65
792,792,1.23,-0.22,-0.37,-53.41,0.0,-1.65
793,793,1.2,-0.39,-0.31,-56.34,0.0,-1.65
794,794,1.15,-0.5,-0.28,-46.33,0.0,-1.65
795,795,1.1,-0.48,-0.24,-37.78,0.0,-1.65
796,796,1.05,-0.39,-0.23,-36.56,0.0,-1.65
797,797,1.01,-0.31,-0.22,-48.22,0.0,-1.65
798,798,0.89,-0.36,-0.21,-88.87,0.0,-1.65
799,799,0.85,-0.46,-0.17,-94.54,0.0,-1.65
800,800,0.85,-0.58,-0.11,-83.92,-15.62,-1.65
801,801,0.84,-0.68,-0.08,-57.74,0.0,-1.65
802,802,0.83,-0.75,-0.05,-19.9,0.0,-1.65
803,803,0.83,-0.75,-0.04,16.24,0.0,-1.65
804,804,0.82,-0.7,-0.03,51.45,0.0,-1.65
805,805,0.81,-0.64,-0.04,80.14,0.0,-1.65
806,806,0.8,-0.58,-0.05,100.59,0.0,-1.65
807,807,0.82,-0.54,-0.04,117.0,0.0,-1.65
808,808,0.82,-0.49,-0.06,128.97,0.0,-1.71
809,809,0.84,-0.45,-0.09,135.5,0.0,-1.71
810,810,0.86,-0.43,-0.1,138.06,0.0,-1.71
811,811,0.88,-0.44,-0.12,138.98,0.0,-1.71
812,812,0.9,-0.45,-0.12,138.79,0.0,-1.71
813,813,0.9,-0.46,-0.13,139.4,0.0,-1.71
814,814,0.92,-0.45,-0.14,138.61,0.0,-1.71
815,815,0.95,-0.43,-0.16,136.35,0.0,-1.71
816,816,0.98,-0.41,-0.19,132.57,0.0,-1.71
817,817,1.02,-0.38,-0.23,125.0,0.0,-1.71
818,818,1.05,-0.36,-0.24,115.84,0.0,-1.71
819,819,1.1,-0.37,-0.25,100.89,0.0,-1.71
820,820,1.12,-0.38,-0.25,95.83,0.0,-1.71
821,821,1.15,-0.38,-0.25,92.96,0.0,-1.71
822,822,1.18,-0.38,-0.24,90.39,0.0,-1.71
823,823,1.2,-0.36,-0.23,87.46,0.0,-1.71
824,824,1.22,-0.35,-0.23,85.14,0.0,-1.71
825,825,1.23,-0.33,-0.21,80.87,15.62,-1.71
826,826,1.24,-0.31,-0.19,78.12,15.62,-1.71
827,827,1.25,-0.3,-0.17,77.15,15.62,-1.71
828,828,1.3,-0.31,-0.12,79.16,15.62,-1.71
829,829,1.35,-0.31,-0.11,81.48,15.62,-1.71
830,830,1.42,-0.31,-0.1,84.53,15.62,-1.71
831,831,1.5,-0.31,-0.1,88.75,15.62,-1.71
832,832,1.57,-0.31,-0.08,92.41,15.62,-1.71
833,833,1.63,-0.31,-0.08,97.6,31.25,-1.71
834,834,1.66,-0.31,-0.08,103.88,31.25,-1.71
835,835,1.65,-0.44,-0.06,157.04,46.88,-1.71
836,836,1.66,-0.31,0.15,145.45,62.5,-1.71
837,837,1.6,-0.11,-0.1,157.71,62.5,-1.71
838,838,1.58,-0.08,-0.1,139.95,78.12,-1.71
839,839,1.45,-0.1,0.02,128.05,78.12,-1.77
840,840,1.43,-0.04,-0.05,116.58,78.12,-1.77
841,841,1.41,-0.03,0.0,104.8,93.75,-1.77
842,842,1.35,-0.02,0.06,88.62,93.75,-1.77
843,843,1.26,0.06,0.1,51.51,93.75,-1.77
844,844,1.21,0.07,0.03,42.3,78.12,-1.77
845,845,1.24,0.15,-0.05,17.03,78.12,-1.77
846,846,1.35,-0.09,0.15,6.41,78.12,-1.77
847,847,1.38,0.04,-0.01,4.82,62.5,-1.77
848,848,1.48,-0.03,-0.06,-4.27,62.5,-1.77
849,849,1.5,0.02,0.03,-13.85,62.5,-1.77
850,850,1.52,0.03,-0.05,-16.91,78.12,-1.77
851,851,1.47,0.03,-0.01,-24.29,78.12,-1.77
852,852,1.4,0.05,-0.02,-28.63,78.12,-1.77
853,853,1.31,0.04,-0.03,-31.56,78.12,-1.77
854,854,1.24,0.04,-0.01,-35.34,78.12,-1.77
855,855,1.17,0.03,0.02,-38.64,78.12,-1.77
856,856,1.13,0.01,0.02,-44.56,62.5,-1.77
857,857,1.08,0.01,0.05,-51.27,62.5,-1.77
858,858,1.03,0.01,0.09,-56.21,62.5,-1.77
859,859,0.96,0.0,0.1,-63.17,62.5,-1.77
860,860,0.9,0.01,0.12,-68.66,62.5,-1.77
861,861,0.79,0.04,0.12,-77.21,62.5,-1.77
862,862,0.77,0.06,0.12,-79.83,62.5,-1.77
863,863,0.74,0.08,0.1,-80.63,46.88,-1.77
864,864,0.73,0.09,0.09,-80.26,46.88,-1.77
865,865,0.73,0.11,0.06,-78.0,31.25,-1.77
866,866,0.72,0.12,0.04,-73.18,31.25,-1.77
867,867,0.71,0.11,0.02,-68.18,31.25,-1.77
868,868,0.71,0.11,-0.01,-62.01,31.25,-1.77
869,869,0.71,0.08,-0.02,-54.44,15.62,-1.77
870,870,0.72,0.06,-0.04,-45.59,15.62,-1.77
871,871,0.74,0.04,-0.05,-35.22,15.62,-1.83
872,872,0.77,0.01,-0.05,-25.21,0.0,-1.83
873,873,0.8,-0.03,-0.04,-13.49,0.0,-1.83
874,874,0.83,-0.06,-0.02,-1.22,0.0,-1.83
875,875,0.85,-0.07,-0.02,9.89,0.0,-1.83
876,876,0.87,-0.08,-0.0,21.24,0.0,-1.83
877,877,0.9,-0.08,-0.0,30.64,0.0,-1.83
878,878,0.92,-0.09,-0.01,40.34,-15.62,-1.83
879,879,0.93,-0.09,-0.01,47.55,-15.62,-1.83
880,880,0.95,-0.09,-0.01,54.32,-15.62,-1.83
881,881,0.97,-0.09,-0.02,57.98,-15.62,-1.83
882,882,0.98,-0.09,-0.03,61.4,-15.62,-1.83
883,883,0.99,-0.09,-0.04,63.05,-15.62,-1.83
884,884,1.0,-0.09,-0.06,63.17,-15.62,-1.83
885,885,1.01,-0.08,-0.09,61.71,-15.62,-1.83
886,886,1.03,-0.07,-0.11,58.41,-15.62,-1.83
887,887,1.07,-0.05,-0.12,52.25,-31.25,-1.83
888,888,1.1,-0.05,-0.11,44.07,-31.25,-1.83
889,889,1.12,-0.05,-0.11,32.53,-31.25,-1.83
890,890,1.13,-0.06,-0.11,20.39,-31.25,-1.83
891,891,1.13,-0.06,-0.1,5.98,-15.62,-1.83
892,892,1.13,-0.07,-0.09,-6.71,-15.62,-1.83
893,893,1.13,-0.08,-0.07,-19.35,-31.25,-1.83
894,894,1.16,-0.08,-0.07,-31.62,-31.25,-1.83
895,895,1.2,-0.09,-0.07,-44.56,-31.25,-1.83
896,896,1.26,-0.05,-0.11,-70.8,-31.25,-1.83
897,897,1.3,-0.06,-0.07,-82.89,-31.25,-1.83
898,898,1.72,1.66,-1.72,-631.04,15.62,-1.83
899,899,1.25,0.8,0.96,-339.05,0.0,-1.83
900,900,1.45,-0.71,-0.04,-111.21,15.62,-1.83
901,901,1.38,0.02,-0.24,-65.61,46.88,-1.83
902,902,1.28,0.32,-0.2,-75.99,31.25,-1.83
903,903,1.24,0.32,-0.1,-120.97,31.25,-1.89
904,904,1.26,0.12,0.15,-141.42,31.25,-1.89
905,905,1.23,-0.05,0.01,-178.53,15.62,-1.89
906,906,1.26,-0.12,-0.55,-298.71,-31.25,-1.89
907,907,1.54,-0.71,0.01,-253.17,-31.25,-1.89
908,908,1.67,-1.18,0.14,-122.8,15.62,-1.89
909,909,1.75,-0.98,0.02,-65.98,93.75,-1.89
910,910,1.17,-0.31,-0.3,-107.24,31.25,-1.89
911,911,1.33,-0.23,-0.16,-69.76,31.25,-1.89
912,912,1.23,-0.58,-0.03,-33.69,46.88,-1.89
913,913,1.4,-0.58,-0.13,-35.34,46.88,-1.89
914,914,1.13,-0.36,-0.09,-26.12,15.62,-1.89
915,915,1.33,-0.4,-0.07,-13.31,15.62,-1.89
916,916,1.44,-0.55,-0.12,7.32,46.88,-1.89
917,917,1.36,-0.71,0.03,48.65,62.5,-1.89
918,918,1.23,-0.85,-0.08,94.36,62.5,-1.89
919,919,1.1,-0.88,-0.07,137.02,31.25,-1.89
920,920,1.02,-0.74,-0.08,172.24,0.0,-1.89
921,921,1.1,-0.59,-0.13,196.72,-15.62,-1.89
922,922,1.21,-0.4,-0.13,194.03,0.0,-1.89
923,923,1.14,-0.13,-0.17,155.58,15.62,-1.89
924,924,1.06,0.0,-0.22,108.58,0.0,-1.89
925,925,0.98,-0.08,-0.23,71.66,0.0,-1.89
926,926,0.92,-0.23,-0.26,44.62,0.0,-1.89
927,927,0.89,-0.35,-0.25,34.24,-15.62,-1.89
928,928,0.9,-0.43,-0.25,35.83,-15.62,-1.89
929,929,0.91,-0.38,-0.28,36.01,-15.62,-1.89
930,930,0.92,-0.24,-0.3,25.39,-15.62,-1.89
931,931,0.91,-0.11,-0.32,-1.28,-15.62,-1.89
932,932,0.86,-0.05,-0.34,-35.03,-15.62,-1.89
933,933,0.83,-0.05,-0.33,-73.97,-15.62,-1.89
934,934,0.81,-0.13,-0.32,-103.88,-15.62,-1.89
935,935,0.84,-0.21,-0.26,-119.57,-31.25,-1.89
936,936,0.87,-0.32,-0.23,-118.59,-31.25,-1.89
937,937,0.89,-0.39,-0.2,-109.86,-15.62,-1.95
938,938,0.9,-0.4,-0.19,-98.63,-15.62,-1.95
939,939,0.91,-0.37,-0.2,-90.39,-15.62,-1.95
940,940,0.89,-0.32,-0.21,-86.55,-15.62,-1.95
941,941,0.88,-0.31,-0.21,-87.77,-15.62,-1.95
942,942,0.87,-0.3,-0.21,-89.54,-15.62,-1.95
943,943,0.87,-0.3,-0.19,-91.37,-15.62,-1.95
944,944,0.89,-0.31,-0.18,-92.9,-15.62,-1.95
945,945,0.91,-0.35,-0.18,-91.86,-15.62,-1.95
946,946,0.93,-0.43,-0.17,-83.8,-15.62,-1.95
947,947,0.94,-0.5,-0.2,-70.01,-15.62,-1.95
948,948,0.95,-0.57,-0.24,-49.68,-15.62,-1.95
949,949,0.95,-0.59,-0.27,-30.03,-15.62,-1.95
950,950,0.96,-0.57,-0.31,-8.73,-15.62,-1.95
951,951,0.96,-0.53,-0.34,4.7,-15.62,-1.95
952,952,0.97,-0.49,-0.36,16.91,-15.62,-1.95
953,953,1.0,-0.46,-0.37,26.92,-31.25,-1.95
954,954,1.06,-0.46,-0.4,39.79,-31.25,-1.95
955,955,1.15,-0.46,-0.41,52.19,-46.88,-1.95
956,956,1.27,-0.45,-0.42,64.09,-31.25,-1.95
957,957,1.35,-0.43,-0.41,76.29,-31.25,-1.95
958,958,1.4,-0.38,-0.39,83.74,-15.62,-1.95
959,959,1.39,-0.32,-0.37,87.95,0.0,-1.95
960,960,1.35,-0.27,-0.34,86.06,15.62,-1.95
961,961,1.31,-0.22,-0.31,80.2,15.62,-1.95
962,962,1.28,-0.18,-0.3,72.63,15.62,-1.95
963,963,1.41,-0.19,-0.28,54.87,0.0,-1.95
964,964,1.47,-0.19,-0.27,49.13,15.62,-1.95
965,965,1.53,-0.19,-0.27,43.27,15.62,-1.95
966,966,1.58,-0.22,-0.25,47.18,15.62,-1.95
967,967,1.61,-0.24,-0.28,48.28,46.88,-1.95
968,968,1.58,-0.22,-0.38,52.92,31.25,-1.95
969,969,1.61,-0.18,-0.32,58.84,31.25,-1.95
970,970,1.63,-0.12,-0.35,69.89,46.88,-2.01
971,971,1.59,-0.2,-0.25,86.18,62.5,-2.01
972,972,1.52,-0.13,-0.3,83.56,62.5,-2.01
973,973,1.52,-0.09,-0.28,98.57,62.5,-2.01
974,974,1.5,-0.06,-0.24,108.28,78.12,-2.01
975,975,1.43,0.08,-0.33,105.71,78.12,-2.01
976,976,1.28,0.01,-0.23,100.16,78.12,-2.01
977,977,1.33,0.16,-0.31,72.88,78.12,-2.01
978,978,1.41,0.15,-0.29,59.57,109.38,-2.01
979,979,1.23,0.18,-0.24,28.69,109.38,-2.01
980,980,1.18,0.16,-0.17,-51.09,93.75,-2.01
981,981,1.12,0.11,-0.17,-80.93,93.75,-2.01
982,982,1.12,0.01,-0.16,-105.1,93.75,-2.01
983,983,1.09,-0.05,-0.14,-118.9,78.12,-2.01
984,984,1.08,-0.11,-0.15,-123.78,78.12,-2.01
985,985,1.04,-0.13,-0.17,-124.69,78.12,-2.01
986,986,1.02,-0.13,-0.18,-122.86,78.12,-2.01
987,987,0.97,-0.14,-0.18,-120.06,78.12,-2.01
988,988,0.9,-0.16,-0.17,-115.3,78.12,-2.01
989,989,0.85,-0.19,-0.16,-108.64,78.12,-2.01
990,990,0.78,-0.22,-0.14,-100.04,78.12,-2.01
991,991,0.74,-0.25,-0.13,-91.19,78.12,-2.01
992,992,0.7,-0.26,-0.12,-79.96,62.5,-2.01
993,993,0.68,-0.27,-0.11,-69.27,62.5,-2.01
994,994,0.66,-0.26,-0.1,-57.92,62.5,-2.01
995,995,0.63,-0.22,-0.09,-39.12,62.5,-2.01
996,996,0.62,-0.2,-0.09,-33.39,46.88,-2.01
997,997,0.6,-0.17,-0.09,-28.69,46.88,-2.01
998,998,0.58,-0.14,-0.09,-26.25,46.88,-2.01
999,999,0.58,-0.12,-0.1,-25.27,46.88,-2.01
1000,1000,0.57,-0.11,-0.09,-25.27,46.88,-2.01
1001,1001,0.57,-0.11,-0.1,-27.16,31.25,-2.01
1002,1002,0.57,-0.11,-0.1,-29.05,31.25,-2.08
1003,1003,0.57,-0.11,-0.1,-30.58,31.25,-2.08
1004,1004,0.58,-0.12,-0.1,-32.17,31.25,-2.08
1005,1005,0.59,-0.14,-0.1,-33.08,15.62,-2.08
1006,1006,0.6,-0.14,-0.11,-33.14,15.62,-2.08
1007,1007,0.62,-0.15,-0.1,-33.08,15.62,-2.08
1008,1008,0.65,-0.15,-0.1,-32.53,15.62,-2.08
1009,1009,0.68,-0.15,-0.09,-32.1,0.0,-2.08
1010,1010,0.72,-0.16,-0.08,-31.01,0.0,-2.08
1011,1011,0.73,-0.16,-0.07,-30.15,0.0,-2.08
1012,1012,0.75,-0.16,-0.06,-27.89,0.0,-2.08
1013,1013,0.76,-0.17,-0.05,-26.12,0.0,-2.08
1014,1014,0.79,-0.17,-0.05,-25.27,0.0,-2.08
1015,1015,0.8,-0.17,-0.05,-23.68,0.0,-2.08
1016,1016,0.83,-0.16,-0.05,-22.09,0.0,-2.08
1017,1017,0.88,-0.16,-0.05,-21.61,0.0,-2.08
1018,1018,0.91,-0.16,-0.05,-21.73,0.0,-2.08
1019,1019,0.96,-0.15,-0.06,-22.64,0.0,-2.08
1020,1020,1.01,-0.14,-0.06,-24.11,0.0,-2.08
1021,1021,1.05,-0.13,-0.04,-28.08,0.0,-2.08
1022,1022,1.1,-0.13,-0.04,-33.2,0.0,-2.08
1023,1023,1.15,-0.13,-0.02,-39.86,0.0,-2.08
1024,1024,1.2,-0.13,-0.02,-46.26,0.0,-2.08
1025,1025,1.25,-0.13,-0.01,-52.06,0.0,-2.08
1026,1026,1.28,-0.15,-0.01,-56.76,15.62,-2.08
1027,1027,1.3,-0.14,-0.0,-61.77,15.62,-2.08
1028,1028,1.33,-0.13,0.02,-67.63,15.62,-2.08
1029,1029,1.4,-0.11,0.05,-74.83,15.62,-2.08
1030,1030,1.52,-0.1,0.08,-81.67,0.0,-2.08
1031,1031,1.64,-0.12,0.08,-88.2,0.0,-2.08
1032,1032,1.78,-0.17,0.09,-95.4,15.62,-2.08
1033,1033,1.85,-0.26,0.08,-91.92,15.62,-2.08
1034,1034,1.89,-0.26,-0.05,-106.75,15.62,-2.08
1035,1035,1.77,0.78,-1.04,-431.82,31.25,-2.08
1036,1036,1.82,0.27,0.54,-294.92,31.25,-2.08
1037,1037,1.83,-1.39,0.02,-46.45,-31.25,-2.14
1038,1038,2.05,-1.62,-0.28,-122.31,62.5,-2.14
1039,1039,1.79,-0.75,-0.06,-80.32,93.75,-2.14
1040,1040,1.62,-0.25,-0.11,-23.32,93.75,-2.14
1041,1041,1.47,-0.08,0.06,-20.87,125.0,-2.14
1042,1042,1.23,0.05,0.02,-76.72,93.75,-2.14
1043,1043,1.14,-0.41,0.26,-215.88,46.88,-2.14
1044,1044,1.17,-0.64,0.67,-136.6,78.12,-2.14
1045,1045,0.98,-0.4,0.3,-131.1,93.75,-2.14
1046,1046,0.84,-0.0,0.4,-141.91,93.75,-2.14
1047,1047,0.93,-0.04,0.62,-110.23,125.0,-2.14
1048,1048,0.72,-0.09,0.44,-149.6,78.12,-2.14
1049,1049,1.1,0.15,0.31,-141.66,62.5,-2.14
1050,1050,1.19,-0.02,0.28,-139.89,93.75,-2.14
1051,1051,1.03,-0.22,0.25,-141.42,31.25,-2.14
1052,1052,1.28,-0.25,0.22,-125.98,15.62,-2.14
1053,1053,1.48,-0.21,0.21,-109.01,31.25,-2.14
1054,1054,1.58,-0.14,0.16,-112.06,46.88,-2.14
1055,1055,1.64,-0.01,0.1,-143.01,62.5,-2.14
1056,1056,1.58,0.05,0.1,-179.26,78.12,-2.14
1057,1057,1.46,-0.01,0.11,-213.26,78.12,-2.14
1058,1058,1.34,-0.12,0.14,-242.86,78.12,-2.14
1059,1059,1.22,-0.27,0.18,-262.39,78.12,-2.14
1060,1060,1.16,-0.36,0.21,-272.03,62.5,-2.14
1061,1061,1.15,-0.37,0.22,-279.6,46.88,-2.14
1062,1062,1.15,-0.32,0.22,-291.5,46.88,-2.14
1063,1063,1.15,-0.24,0.21,-310.85,46.88,-2.14
1064,1064,1.1,-0.17,0.2,-340.52,46.88,-2.14
1065,1065,0.97,-0.17,0.19,-395.32,46.88,-2.14
1066,1066,0.93,-0.24,0.19,-409.48,46.88,-2.14
1067,1067,0.9,-0.3,0.23,-409.73,31.25,-2.14
1068,1068,0.88,-0.35,0.24,-400.88,31.25,-2.14
1069,1069,0.86,-0.37,0.24,-383.54,31.25,-2.2
1070,1070,0.84,-0.36,0.25,-363.04,31.25,-2.2
1071,1071,0.8,-0.34,0.23,-341.13,31.25,-2.2
1072,1072,0.78,-0.34,0.2,-318.79,31.25,-2.2
1073,1073,0.77,-0.36,0.18,-294.01,15.62,-2.2
1074,1074,0.76,-0.4,0.15,-265.93,15.62,-2.2
1075,1075,0.77,-0.45,0.12,-235.72,15.62,-2.2
1076,1076,0.78,-0.5,0.1,-200.81,15.62,-2.2
1077,1077,0.8,-0.52,0.1,-164.49,15.62,-2.2
1078,1078,0.81,-0.54,0.12,-126.59,0.0,-2.2
1079,1079,0.83,-0.54,0.13,-93.08,0.0,-2.2
1080,1080,0.85,-0.53,0.14,-62.07,0.0,-2.2
1081,1081,0.86,-0.51,0.15,-34.61,0.0,-2.2
1082,1082,0.87,-0.51,0.15,-11.05,0.0,-2.2
1083,1083,0.87,-0.5,0.13,8.42,-15.62,-2.2
1084,1084,0.87,-0.51,0.12,25.7,-15.62,-2.2
1085,1085,0.85,-0.51,0.08,38.76,-15.62,-2.2
1086,1086,0.84,-0.52,0.03,48.83,-31.25,-2.2
1087,1087,0.85,-0.52,-0.02,54.69,-46.88,-2.2
1088,1088,0.87,-0.51,-0.08,53.53,-46.88,-2.2
1089,1089,0.92,-0.47,-0.12,44.43,-62.5,-2.2
1090,1090,0.96,-0.43,-0.15,28.99,-78.12,-2.2
1091,1091,1.0,-0.42,-0.19,8.42,-78.12,-2.2
1092,1092,1.05,-0.43,-0.2,-16.17,-93.75,-2.2
1093,1093,1.1,-0.47,-0.21,-43.52,-93.75,-2.2
1094,1094,1.18,-0.56,-0.23,-67.2,-109.38,-2.2
1095,1095,1.29,-0.65,-0.27,-86.12,-125.0,-2.2
1096,1096,1.47,-0.72,-0.29,-98.88,-140.62,-2.2
1097,1097,1.64,-0.75,-0.33,-104.98,-140.62,-2.2
1098,1098,1.79,-0.75,-0.38,-105.9,-140.62,-2.2
1099,1099,1.65,-0.73,-0.51,-84.96,-93.75,-2.2
1100,1100,1.42,-0.72,-0.56,-69.03,-78.12,-2.2
1101,1101,1.13,-0.71,-0.61,-48.77,-78.12,-2.2
1102,1102,0.91,-0.72,-0.65,-27.04,-78.12,-2.26
1103,1103,0.69,-0.73,-0.67,-5.62,-78.12,-2.26
1104,1104,0.54,-0.74,-0.67,12.63,-78.12,-2.26
1105,1105,0.42,-0.72,-0.64,31.07,-78.12,-2.26
1106,1106,0.36,-0.68,-0.6,44.68,-93.75,-2.26
1107,1107,0.37,-0.65,-0.59,55.79,-109.38,-2.26
1108,1108,0.45,-0.63,-0.59,62.32,-125.0,-2.26
1109,1109,0.64,-0.61,-0.52,60.91,-140.62,-2.26
1110,1110,0.85,-0.63,-0.56,67.08,-171.88,-2.26
1111,1111,1.13,-0.67,-0.5,69.27,-171.88,-2.26
1112,1112,1.37,-0.65,-0.37,69.4,-171.88,-2.26
1113,1113,1.62,-0.67,-0.41,84.53,-171.88,-2.26
1114,1114,1.86,-0.68,-0.36,96.44,-140.62,-2.26
1115,1115,2.1,-0.71,-0.23,123.05,-109.38,-2.26
1116,1116,2.24,-0.58,-0.28,132.39,-78.12,-2.26
1117,1117,2.39,-0.61,-0.25,154.36,-62.5,-2.26
1118,1118,2.48,-0.47,-0.22,166.99,-15.62,-2.26
1119,1119,2.35,-0.28,-0.22,182.37,15.62,-2.26
1120,1120,2.16,-0.19,-0.24,180.91,31.25,-2.26
1121,1121,2.05,-0.21,-0.23,194.52,46.88,-2.26
1122,1122,2.02,-0.05,-0.38,179.38,62.5,-2.26
1123,1123,1.91,-0.05,-0.35,175.84,78.12,-2.26
1124,1124,1.79,0.02,-0.39,167.05,78.12,-2.26
1125,1125,1.76,0.13,-0.42,146.91,93.75,-2.26
1126,1126,1.59,0.11,-0.36,131.41,78.12,-2.26
1127,1127,1.6,0.15,-0.36,108.46,93.75,-2.26
1128,1128,1.47,0.14,-0.34,82.82,109.38,-2.26
1129,1129,1.41,0.13,-0.33,62.68,109.38,-2.26
1130,1130,1.37,0.14,-0.3,35.95,109.38,-2.26
1131,1131,1.32,0.13,-0.28,9.7,109.38,-2.26
1132,1132,1.3,0.12,-0.26,-15.2,109.38,-2.26
1133,1133,1.22,0.09,-0.24,-35.1,109.38,-2.26
1134,1134,1.17,0.05,-0.23,-49.62,109.38,-2.26
1135,1135,1.1,0.02,-0.22,-59.27,109.38,-2.26
1136,1136,1.04,0.0,-0.21,-65.0,109.38,-2.32
1137,1137,0.99,0.0,-0.2,-67.44,109.38,-2.32
1138,1138,0.93,0.02,-0.19,-69.89,109.38,-2.32
1139,1139,0.87,0.02,-0.17,-70.98,109.38,-2.32
1140,1140,0.82,0.01,-0.15,-70.8,109.38,-2.32
1141,1141,0.79,-0.01,-0.16,-69.4,109.38,-2.32
1142,1142,0.8,-0.01,-0.16,-67.57,93.75,-2.32
1143,1143,0.86,0.04,-0.14,-59.88,93.75,-2.32
1144,1144,0.87,0.09,-0.13,-56.03,93.75,-2.32
1145,1145,0.87,0.13,-0.11,-53.83,109.38,-2.32
1146,1146,0.84,0.16,-0.1,-52.67,109.38,-2.32
1147,1147,0.8,0.17,-0.09,-51.51,109.38,-2.32
1148,1148,0.76,0.17,-0.09,-50.66,109.38,-2.32
1149,1149,0.74,0.16,-0.09,-50.84,109.38,-2.32
1150,1150,0.73,0.15,-0.08,-50.23,109.38,-2.32
1151,1151,0.72,0.12,-0.08,-49.13,93.75,-2.32
1152,1152,0.73,0.08,-0.06,-49.07,93.75,-2.32
1153,1153,0.76,0.06,-0.04,-48.77,93.75,-2.32
1154,1154,0.79,0.02,-0.04,-47.67,93.75,-2.32
1155,1155,0.82,-0.0,-0.02,-46.33,93.75,-2.32
1156,1156,0.83,-0.02,-0.03,-44.01,93.75,-2.32
1157,1157,0.83,-0.04,-0.04,-40.65,93.75,-2.32
1158,1158,0.81,-0.05,-0.04,-37.17,93.75,-2.32
1159,1159,0.79,-0.05,-0.05,-33.87,93.75,-2.32
1160,1160,0.78,-0.04,-0.07,-30.64,93.75,-2.32
1161,1161,0.8,-0.02,-0.07,-29.11,78.12,-2.32
1162,1162,0.85,0.0,-0.04,-29.17,78.12,-2.32
1163,1163,0.97,0.02,-0.0,-31.43,62.5,-2.32
1164,1164,1.08,0.01,0.04,-36.19,62.5,-2.32
1165,1165,1.19,-0.02,0.07,-40.47,46.88,-2.32
1166,1166,1.26,-0.05,0.08,-43.7,62.5,-2.32
1167,1167,1.29,-0.08,0.09,-47.67,62.5,-2.32
1168,1168,1.29,-0.1,0.1,-51.27,62.5,-2.32
1169,1169,1.26,-0.12,0.1,-54.63,62.5,-2.38
1170,1170,1.23,-0.13,0.08,-57.86,62.5,-2.38
1171,1171,1.21,-0.14,0.06,-63.29,62.5,-2.38
1172,1172,1.21,-0.16,0.05,-69.03,46.88,-2.38
1173,1173,1.22,-0.18,0.04,-74.16,46.88,-2.38
1174,1174,1.22,-0.21,0.0,-78.67,46.88,-2.38
1175,1175,1.22,-0.22,-0.02,-82.4,46.88,-2.38
1176,1176,1.22,-0.23,-0.04,-85.33,46.88,-2.38
1177,1177,1.21,-0.22,-0.05,-87.71,46.88,-2.38
1178,1178,1.22,-0.19,-0.04,-91.13,31.25,-2.38
1179,1179,1.25,-0.15,-0.02,-96.01,31.25,-2.38
1180,1180,1.3,-0.11,0.01,-102.66,31.25,-2.38
1181,1181,1.38,-0.07,0.06,-112.06,31.25,-2.38
1182,1182,1.48,-0.05,0.1,-121.09,31.25,-2.38
1183,1183,1.59,-0.05,0.17,-132.02,31.25,-2.38
1184,1184,1.71,-0.09,0.22,-144.17,46.88,-2.38
1185,1185,1.8,-0.08,0.21,-167.72,46.88,-2.38
1186,1186,1.79,0.3,-0.2,-292.97,46.88,-2.38
1187,1187,1.89,0.47,0.41,-363.28,31.25,-2.38
1188,1188,2.03,-0.22,0.53,-271.06,62.5,-2.38
1189,1189,2.11,-0.86,0.45,-265.32,93.75,-2.38
1190,1190,2.05,-0.62,0.51,-253.17,109.38,-2.38
1191,1191,1.95,-0.28,0.55,-229.68,109.38,-2.38
1192,1192,1.85,-0.01,0.4,-271.36,109.38,-2.38
1193,1193,1.9,0.12,0.01,-377.08,156.25,-2.38
1194,1194,1.71,-0.18,0.4,-388.73,187.5,-2.38
1195,1195,1.47,-0.48,0.44,-367.43,171.88,-2.38
1196,1196,1.48,-0.51,0.34,-361.08,156.25,-2.38
1197,1197,1.45,-0.49,0.2,-338.75,156.25,-2.38
1198,1198,1.31,-0.49,0.17,-320.07,125.0,-2.38
1199,1199,1.25,-0.44,0.16,-302.06,93.75,-2.38
1200,1200,1.28,-0.35,0.1,-296.26,93.75,-2.38
1201,1201,1.34,-0.3,0.19,-297.91,109.38,-2.38
1202,1202,1.27,-0.18,0.25,-314.33,125.0,-2.38
1203,1203,1.14,-0.05,0.2,-352.11,109.38,-2.44
1204,1204,1.08,-0.05,0.23,-381.65,109.38,-2.44
1205,1205,1.02,-0.17,0.29,-401.43,93.75,-2.44
1206,1206,1.0,-0.29,0.32,-409.06,93.75,-2.44
1207,1207,1.03,-0.42,0.35,-395.2,78.12,-2.44
1208,1208,1.06,-0.44,0.34,-382.32,78.12,-2.44
1209,1209,1.12,-0.38,0.33,-367.74,78.12,-2.44
1210,1210,1.16,-0.3,0.33,-361.51,78.12,-2.44
1211,1211,1.15,-0.22,0.32,-364.99,78.12,-2.44
1212,1212,1.07,-0.23,0.34,-374.63,78.12,-2.44
1213,1213,1.04,-0.33,0.33,-362.67,78.12,-2.44
1214,1214,1.02,-0.43,0.37,-335.02,78.12,-2.44
1215,1215,0.99,-0.52,0.38,-294.49,78.12,-2.44
1216,1216,0.96,-0.56,0.36,-249.39,78.12,-2.44
1217,1217,0.93,-0.55,0.35,-201.97,62.5,-2.44
1218,1218,0.9,-0.51,0.32,-162.6,62.5,-2.44
1219,1219,0.87,-0.45,0.3,-127.32,62.5,-2.44
1220,1220,0.85,-0.4,0.29,-99.61,62.5,-2.44
1221,1221,0.84,-0.38,0.28,-76.23,46.88,-2.44
1222,1222,0.82,-0.35,0.26,-56.64,46.88,-2.44
1223,1223,0.81,-0.33,0.24,-42.48,31.25,-2.44
1224,1224,0.8,-0.31,0.23,-34.48,31.25,-2.44
1225,1225,0.79,-0.3,0.24,-26.67,31.25,-2.44
1226,1226,0.78,-0.33,0.23,-17.7,15.62,-2.44
1227,1227,0.77,-0.38,0.19,-9.09,15.62,-2.44
1228,1228,0.78,-0.44,0.14,2.62,0.0,-2.44
1229,1229,0.82,-0.47,0.09,15.99,-15.62,-2.44
1230,1230,0.9,-0.5,0.05,28.26,-31.25,-2.44
1231,1231,0.97,-0.53,-0.01,38.64,-46.88,-2.44
1232,1232,1.03,-0.55,-0.04,45.29,-46.88,-2.44
1233,1233,1.05,-0.58,-0.04,49.62,-46.88,-2.44
1234,1234,1.02,-0.63,-0.08,54.69,-62.5,-2.44
1235,1235,0.97,-0.7,-0.13,59.08,-62.5,-2.44
1236,1236,0.91,-0.77,-0.14,64.76,-62.5,-2.5
1237,1237,0.86,-0.83,-0.07,66.83,-78.12,-2.5
1238,1238,0.77,-0.94,0.01,39.86,-93.75,-2.5
1239,1239,0.74,-0.83,-0.01,29.36,-93.75,-2.5
1240,1240,0.72,-0.7,-0.04,30.82,-93.75,-2.5
1241,1241,0.71,-0.64,-0.13,31.98,-93.75,-2.5
1242,1242,0.71,-0.59,-0.17,32.04,-93.75,-2.5
1243,1243,0.74,-0.59,-0.19,33.33,-93.75,-2.5
1244,1244,0.77,-0.65,-0.21,33.94,-109.38,-2.5
1245,1245,0.86,-0.71,-0.23,32.96,-109.38,-2.5
1246,1246,0.96,-0.77,-0.25,35.22,-125.0,-2.5
1247,1247,1.1,-0.8,-0.26,38.88,-125.0,-2.5
1248,1248,1.22,-0.81,-0.27,47.61,-125.0,-2.5
1249,1249,1.34,-0.8,-0.29,56.88,-125.0,-2.5
1250,1250,1.43,-0.78,-0.29,67.63,-125.0,-2.5
1251,1251,1.49,-0.76,-0.32,81.54,-125.0,-2.5
1252,1252,1.59,-0.67,-0.37,133.67,-93.75,-2.5
1253,1253,1.58,-0.67,-0.37,149.11,-93.75,-2.5
1254,1254,1.57,-0.65,-0.37,162.54,-78.12,-2.5
1255,1255,1.55,-0.58,-0.37,176.03,-62.5,-2.5
1256,1256,1.53,-0.52,-0.38,174.8,-62.5,-2.5
1257,1257,1.5,-0.49,-0.41,170.23,-46.88,-2.5
1258,1258,1.48,-0.45,-0.44,162.41,-31.25,-2.5
1259,1259,1.46,-0.4,-0.45,151.67,-31.25,-2.5
1260,1260,1.44,-0.35,-0.45,139.59,-31.25,-2.5
1261,1261,1.44,-0.34,-0.5,128.6,-15.62,-2.5
1262,1262,1.46,-0.31,-0.49,115.23,-15.62,-2.5
1263,1263,1.48,-0.28,-0.47,101.5,-15.62,-2.5
1264,1264,1.5,-0.25,-0.46,88.68,0.0,-2.5
1265,1265,1.39,-0.28,-0.43,73.3,-15.62,-2.5
1266,1266,1.58,-0.24,-0.56,73.67,0.0,-2.56
1267,1267,1.6,-0.26,-0.37,73.43,15.62,-2.56
1268,1268,1.51,-0.14,-0.5,66.1,15.62,-2.56
1269,1269,1.48,-0.15,-0.42,49.56,31.25,-2.56
1270,1270,1.42,-0.11,-0.4,35.4,31.25,-2.56
1271,1271,1.39,-0.11,-0.41,23.13,31.25,-2.56
1272,1272,1.34,-0.14,-0.37,10.8,46.88,-2.56
1273,1273,1.29,-0.15,-0.38,3.66,46.88,-2.56
1274,1274,1.24,-0.19,-0.38,-0.85,46.88,-2.56
1275,1275,1.2,-0.2,-0.38,-3.11,46.88,-2.56
1276,1276,1.14,-0.22,-0.4,-1.77,46.88,-2.56
1277,1277,1.1,-0.23,-0.39,2.08,46.88,-2.56
1278,1278,1.06,-0.24,-0.39,7.87,31.25,-2.56
1279,1279,1.04,-0.25,-0.41,15.08,31.25,-2.56
1280,1280,1.02,-0.25,-0.41,22.95,31.25,-2.56
1281,1281,1.0,-0.23,-0.41,29.79,46.88,-2.56
1282,1282,0.97,-0.2,-0.4,35.16,46.88,-2.56
1283,1283,0.95,-0.19,-0.39,38.88,46.88,-2.56
1284,1284,0.9,-0.16,-0.36,40.53,46.88,-2.56
1285,1285,0.86,-0.12,-0.35,40.77,46.88,-2.56
1286,1286,0.83,-0.07,-0.32,38.57,46.88,-2.56
1287,1287,0.78,-0.03,-0.29,35.03,62.5,-2.56
1288,1288,0.74,-0.0,-0.26,28.69,62.5,-2.56
1289,1289,0.7,0.01,-0.25,21.55,62.5,-2.56
1290,1290,0.67,0.01,-0.23,14.22,62.5,-2.56
1291,1291,0.66,0.01,-0.21,7.45,46.88,-2.56
1292,1292,0.66,-0.0,-0.2,2.14,46.88,-2.56
1293,1293,0.68,-0.01,-0.18,-2.38,46.88,-2.56
1294,1294,0.7,-0.03,-0.17,-6.29,46.88,-2.56
1295,1295,0.73,-0.04,-0.16,-8.24,46.88,-2.56
1296,1296,0.75,-0.04,-0.16,-10.86,46.88,-2.56
1297,1297,0.8,-0.07,-0.15,-10.86,46.88,-2.56
1298,1298,0.81,-0.07,-0.13,-10.56,46.88,-2.56
1299,1299,0.81,-0.07,-0.12,-8.97,46.88,-2.56
1300,1300,0.81,-0.06,-0.12,-7.93,46.88,-2.62
1301,1301,0.81,-0.06,-0.11,-7.45,46.88,-2.62
1302,1302,0.81,-0.06,-0.1,-7.39,46.88,-2.62
1303,1303,0.8,-0.07,-0.09,-7.75,46.88,-2.62
1304,1304,0.8,-0.07,-0.1,-7.93,46.88,-2.62
1305,1305,0.81,-0.07,-0.08,-9.16,46.88,-2.62
1306,1306,0.83,-0.06,-0.08,-11.66,31.25,-2.62
1307,1307,0.91,-0.04,-0.06,-15.32,31.25,-2.62
1308,1308,1.0,-0.03,-0.04,-22.77,15.62,-2.62
1309,1309,1.08,-0.04,-0.03,-30.88,15.62,-2.62
1310,1310,1.14,-0.07,-0.03,-37.17,15.62,-2.62
1311,1311,1.17,-0.1,-0.03,-41.87,15.62,-2.62
1312,1312,1.17,-0.13,-0.04,-45.17,31.25,-2.62
1313,1313,1.15,-0.15,-0.06,-46.08,31.25,-2.62
1314,1314,1.12,-0.16,-0.09,-47.61,15.62,-2.62
1315,1315,1.09,-0.17,-0.1,-48.77,15.62,-2.62
1316,1316,1.08,-0.17,-0.13,-50.84,15.62,-2.62
1317,1317,1.08,-0.19,-0.14,-53.1,15.62,-2.62
1318,1318,1.07,-0.2,-0.15,-56.82,15.62,-2.62
1319,1319,1.05,-0.21,-0.15,-60.18,15.62,-2.62
1320,1320,1.03,-0.21,-0.14,-63.72,15.62,-2.62
1321,1321,1.01,-0.21,-0.12,-68.18,15.62,-2.62
1322,1322,0.98,-0.21,-0.11,-72.14,15.62,-2.62
1323,1323,0.96,-0.2,-0.09,-75.62,15.62,-2.62
1324,1324,0.95,-0.19,-0.07,-79.47,15.62,-2.62
1325,1325,0.96,-0.17,-0.04,-82.95,15.62,-2.62
1326,1326,1.0,-0.14,-0.01,-85.63,15.62,-2.62
1327,1327,1.06,-0.11,0.01,-90.21,0.0,-2.62
1328,1328,1.15,-0.09,0.04,-94.6,0.0,-2.62
1329,1329,1.26,-0.09,0.06,-98.82,0.0,-2.62
1330,1330,1.38,-0.1,0.07,-102.42,0.0,-2.62
1331,1331,1.48,-0.12,0.07,-105.65,0.0,-2.62
1332,1332,1.59,-0.15,0.08,-108.28,0.0,-2.62
1333,1333,1.67,-0.18,0.06,-110.84,15.62,-2.62
1334,1334,1.74,-0.21,0.06,-112.3,15.62,-2.69
1335,1335,1.78,-0.24,0.05,-114.69,31.25,-2.69
1336,1336,1.76,-0.27,0.04,-118.47,46.88,-2.69
1337,1337,1.71,-0.28,0.03,-121.09,46.88,-2.69
1338,1338,1.63,-0.29,0.02,-126.53,46.88,-2.69
1339,1339,1.55,-0.28,0.04,-134.46,46.88,-2.69
1340,1340,1.49,-0.26,0.05,-142.94,46.88,-2.69
1341,1341,1.42,-0.25,0.04,-155.94,46.88,-2.69
1342,1342,1.37,-0.22,0.02,-167.72,46.88,-2.69
1343,1343,1.3,-0.22,-0.01,-180.3,31.25,-2.69
1344,1344,1.25,-0.22,-0.03,-191.35,31.25,-2.69
1345,1345,1.21,-0.23,-0.06,-201.23,31.25,-2.69
1346,1346,1.16,-0.24,-0.08,-211.73,15.62,-2.69
1347,1347,1.13,-0.26,-0.08,-216.67,15.62,-2.69
1348,1348,1.11,-0.26,-0.09,-222.41,15.62,-2.69
1349,1349,1.09,-0.27,-0.08,-227.84,15.62,-2.69
1350,1350,1.08,-0.27,-0.06,-232.79,15.62,-2.69
1351,1351,1.06,-0.28,-0.03,-236.33,0.0,-2.69
1352,1352,1.05,-0.29,-0.01,-238.34,0.0,-2.69
1353,1353,1.03,-0.31,0.02,-238.77,0.0,-2.69
1354,1354,1.02,-0.34,0.04,-235.47,0.0,-2.69
1355,1355,1.0,-0.37,0.05,-227.72,0.0,-2.69
1356,1356,0.98,-0.4,0.06,-216.13,0.0,-2.69
1357,1357,0.96,-0.43,0.08,-201.6,0.0,-2.69
1358,1358,0.95,-0.45,0.07,-183.84,0.0,-2.69
1359,1359,0.93,-0.46,0.09,-165.71,15.62,-2.69
1360,1360,0.91,-0.46,0.1,-146.48,0.0,-2.69
1361,1361,0.9,-0.48,0.1,-127.08,0.0,-2.69
1362,1362,0.88,-0.5,0.1,-106.75,0.0,-2.69
1363,1363,0.86,-0.51,0.11,-86.0,0.0,-2.69
1364,1364,0.84,-0.53,0.1,-64.51,0.0,-2.69
1365,1365,0.82,-0.54,0.07,-42.42,0.0,-2.69
1366,1366,0.8,-0.57,0.03,-22.34,0.0,-2.69
1367,1367,0.78,-0.58,-0.02,-4.21,0.0,-2.69
1368,1368,0.77,-0.58,-0.07,10.86,-15.62,-2.75
1369,1369,0.77,-0.57,-0.1,21.97,-15.62,-2.75
1370,1370,0.77,-0.56,-0.12,28.93,-31.25,-2.75
1371,1371,0.79,-0.55,-0.15,30.58,-31.25,-2.75
1372,1372,0.82,-0.55,-0.16,28.56,-46.88,-2.75
1373,1373,0.86,-0.57,-0.18,24.29,-46.88,-2.75
1374,1374,0.9,-0.6,-0.19,16.17,-62.5,-2.75
1375,1375,0.94,-0.63,-0.19,4.27,-62.5,-2.75
1376,1376,0.98,-0.62,-0.21,-8.67,-62.5,-2.75
1377,1377,1.0,-0.57,-0.22,-19.78,-62.5,-2.75
1378,1378,1.0,-0.55,-0.24,-24.66,-78.12,-2.75
1379,1379,1.02,-0.55,-0.27,-24.66,-78.12,-2.75
1380,1380,1.13,-0.59,-0.31,-19.47,-109.38,-2.75
1381,1381,1.3,-0.63,-0.32,-11.29,-125.0,-2.75
1382,1382,1.54,-0.66,-0.35,-3.91,-140.62,-2.75
1383,1383,1.71,-0.67,-0.36,4.76,-125.0,-2.75
1384,1384,1.81,-0.66,-0.39,14.83,-109.38,-2.75
1385,1385,1.76,-0.63,-0.41,27.89,-78.12,-2.75
1386,1386,1.58,-0.61,-0.41,42.79,-62.5,-2.75
1387,1387,1.38,-0.58,-0.4,56.09,-46.88,-2.75
1388,1388,1.18,-0.56,-0.4,68.6,-46.88,-2.75
1389,1389,1.07,-0.54,-0.41,78.61,-46.88,-2.75
1390,1390,0.99,-0.53,-0.42,86.3,-46.88,-2.75
1391,1391,0.94,-0.51,-0.42,90.27,-46.88,-2.75
1392,1392,0.9,-0.49,-0.38,93.2,-31.25,-2.75
1393,1393,0.85,-0.46,-0.34,93.81,-31.25,-2.75
1394,1394,0.83,-0.41,-0.3,92.41,-31.25,-2.75
1395,1395,0.85,-0.38,-0.29,90.58,-46.88,-2.75
1396,1396,0.94,-0.36,-0.25,86.36,-46.88,-2.75
1397,1397,1.07,-0.34,-0.23,81.05,-46.88,-2.75
1398,1398,1.22,-0.32,-0.2,76.78,-46.88,-2.75
1399,1399,1.37,-0.33,-0.22,77.82,-46.88,-2.75
1400,1400,1.52,-0.51,-0.03,121.15,-31.25,-2.75
1401,1401,1.57,-0.3,-0.38,96.98,-46.88,-2.75
1402,1402,1.85,-0.46,-0.04,100.89,-31.25,-2.81
1403,1403,1.99,-0.32,-0.08,120.67,15.62,-2.81
1404,1404,1.94,-0.19,-0.2,126.22,31.25,-2.81
1405,1405,1.91,-0.23,-0.13,124.76,46.88,-2.81
1406,1406,1.84,-0.18,-0.15,123.35,62.5,-2.81
1407,1407,1.77,-0.16,-0.14,129.52,62.5,-2.81
1408,1408,1.67,-0.09,-0.1,114.44,62.5,-2.81
1409,1409,1.6,-0.14,-0.23,107.91,62.5,-2.81
1410,1410,1.66,-0.25,-0.1,124.88,78.12,-2.81
1411,1411,1.54,-0.15,-0.22,126.77,46.88,-2.81
1412,1412,1.66,-0.17,-0.19,123.29,78.12,-2.81
1413,1413,1.38,-0.06,-0.2,77.58,78.12,-2.81
1414,1414,1.31,-0.07,-0.21,62.19,62.5,-2.81
1415,1415,1.27,-0.09,-0.16,43.15,62.5,-2.81
1416,1416,1.22,-0.1,-0.16,31.37,62.5,-2.81
1417,1417,1.19,-0.13,-0.14,21.61,46.88,-2.81
1418,1418,1.15,-0.14,-0.12,14.83,46.88,-2.81
1419,1419,1.13,-0.13,-0.11,10.01,46.88,-2.81
1420,1420,1.1,-0.13,-0.1,6.35,46.88,-2.81
1421,1421,1.07,-0.12,-0.09,3.3,46.88,-2.81
1422,1422,1.03,-0.11,-0.06,-0.37,46.88,-2.81
1423,1423,0.99,-0.11,-0.04,-2.14,46.88,-2.81
1424,1424,0.96,-0.11,-0.04,-2.32,46.88,-2.81
1425,1425,0.92,-0.11,-0.04,-0.61,31.25,-2.81
1426,1426,0.89,-0.11,-0.04,3.54,31.25,-2.81
1427,1427,0.87,-0.12,-0.05,8.79,31.25,-2.81
1428,1428,0.86,-0.12,-0.06,15.08,31.25,-2.81
1429,1429,0.85,-0.1,-0.08,21.48,31.25,-2.81
1430,1430,0.85,-0.1,-0.09,28.69,31.25,-2.81
1431,1431,0.84,-0.08,-0.1,35.03,31.25,-2.81
1432,1432,0.84,-0.05,-0.1,42.97,31.25,-2.81
1433,1433,0.83,-0.04,-0.1,49.26,31.25,-2.81
1434,1434,0.82,-0.02,-0.09,55.05,31.25,-2.87
1435,1435,0.8,-0.01,-0.09,60.49,31.25,-2.87
1436,1436,0.81,-0.02,-0.1,62.38,31.25,-2.87
1437,1437,0.83,-0.0,-0.09,63.11,31.25,-2.87
1438,1438,0.85,-0.0,-0.09,64.15,31.25,-2.87
1439,1439,0.87,-0.01,-0.08,61.83,31.25,-2.87
1440,1440,0.89,-0.02,-0.09,59.63,31.25,-2.87
1441,1441,0.9,-0.02,-0.08,57.8,31.25,-2.87
1442,1442,0.9,-0.03,-0.09,56.27,31.25,-2.87
1443,1443,0.88,-0.03,-0.1,53.77,46.88,-2.87
1444,1444,0.86,-0.02,-0.11,51.27,46.88,-2.87
1445,1445,0.84,0.0,-0.12,47.24,31.25,-2.87
1446,1446,0.85,0.02,-0.11,42.66,31.25,-2.87
1447,1447,0.88,0.05,-0.09,35.4,31.25,-2.87
1448,1448,0.94,0.09,-0.06,25.39,15.62,-2.87
1449,1449,1.02,0.1,-0.03,14.53,15.62,-2.87
1450,1450,1.12,0.1,0.01,2.01,0.0,-2.87
1451,1451,1.21,0.07,0.02,-9.28,0.0,-2.87
1452,1452,1.27,0.02,-0.0,-20.02,0.0,-2.87
1453,1453,1.29,-0.02,-0.03,-27.04,15.62,-2.87
1454,1454,1.26,-0.06,-0.06,-31.74,15.62,-2.87
1455,1455,1.21,-0.09,-0.09,-34.85,15.62,-2.87
1456,1456,1.13,-0.12,-0.14,-35.58,15.62,-2.87
1457,1457,1.07,-0.15,-0.19,-35.52,0.0,-2.87
1458,1458,1.02,-0.17,-0.25,-33.45,0.0,-2.87
1459,1459,0.98,-0.19,-0.3,-31.92,0.0,-2.87
1460,1460,0.95,-0.18,-0.32,-31.31,0.0,-2.87
1461,1461,0.93,-0.15,-0.3,-33.33,0.0,-2.87
1462,1462,0.92,-0.11,-0.26,-38.27,0.0,-2.87
1463,1463,0.92,-0.05,-0.2,-46.39,0.0,-2.87
1464,1464,0.95,-0.01,-0.14,-57.37,-15.62,-2.87
1465,1465,1.02,0.04,-0.06,-71.17,-15.62,-2.87
1466,1466,1.12,0.06,-0.02,-84.35,-15.62,-2.87
1467,1467,1.23,0.08,0.04,-99.67,-15.62,-2.87
1468,1468,1.33,0.09,0.08,-113.34,-15.62,-2.93
1469,1469,1.41,0.07,0.11,-126.89,0.0,-2.93
1470,1470,1.45,0.05,0.14,-138.0,15.62,-2.93
1471,1471,1.46,0.02,0.17,-147.58,31.25,-2.93
1472,1472,1.44,-0.02,0.19,-157.53,46.88,-2.93
1473,1473,1.42,-0.04,0.2,-164.43,62.5,-2.93
1474,1474,1.4,-0.06,0.23,-174.19,62.5,-2.93
1475,1475,1.4,-0.08,0.25,-183.47,78.12,-2.93
1476,1476,1.42,-0.1,0.26,-192.99,78.12,-2.93
1477,1477,1.43,-0.13,0.27,-201.42,93.75,-2.93
1478,1478,1.43,-0.16,0.31,-210.14,109.38,-2.93
1479,1479,1.43,-0.19,0.31,-217.53,109.38,-2.93
1480,1480,1.41,-0.22,0.32,-226.26,109.38,-2.93
1481,1481,1.41,-0.15,0.23,-259.58,109.38,-2.93
1482,1482,1.33,0.35,-0.13,-424.44,93.75,-2.93
1483,1483,1.49,0.4,0.53,-436.83,93.75,-2.93
1484,1484,1.54,-0.6,0.73,-290.16,109.38,-2.93
1485,1485,1.53,-1.25,0.59,-263.55,93.75,-2.93
1486,1486,1.6,-0.89,0.64,-221.56,109.38,-2.93
1487,1487,1.63,-0.39,0.66,-160.22,125.0,-2.93
1488,1488,1.53,-0.06,0.49,-190.8,93.75,-2.93
1489,1489,1.56,0.01,0.18,-273.32,93.75,-2.93
1490,1490,1.45,-0.91,0.73,-194.27,125.0,-2.93
1491,1491,1.5,-0.89,0.67,-193.91,140.62,-2.93
1492,1492,1.42,-0.77,0.65,-165.65,109.38,-2.93
1493,1493,1.35,-0.75,0.64,-139.53,109.38,-2.93
1494,1494,1.13,-0.89,0.5,-120.79,93.75,-2.93
1495,1495,1.03,-0.86,0.38,-118.04,46.88,-2.93
1496,1496,1.04,-0.76,0.27,-122.5,15.62,-2.93
1497,1497,1.15,-0.65,0.19,-148.01,15.62,-2.93
1498,1498,1.19,-0.48,0.12,-204.41,31.25,-2.93
1499,1499,1.08,-0.46,0.11,-309.33,31.25,-2.99
1500,1500,0.99,-0.59,0.14,-317.38,-15.62,-2.99
1501,1501,1.04,-0.61,0.09,-311.77,0.0,-2.99
1502,1502,0.92,-0.48,0.04,-312.26,-31.25,-2.99
1503,1503,1.05,-0.23,0.08,-372.99,-46.88,-2.99
1504,1504,0.91,-0.27,0.06,-402.4,-62.5,-2.99
1505,1505,0.94,-0.38,0.05,-420.9,-62.5,-2.99
1506,1506,0.88,-0.52,0.13,-418.76,-62.5,-2.99
1507,1507,0.88,-0.65,0.14,-395.08,-78.12,-2.99
1508,1508,0.86,-0.75,0.13,-356.51,-78.12,-2.99
1509,1509,0.83,-0.78,0.08,-314.7,-78.12,-2.99
1510,1510,0.82,-0.75,-0.0,-271.97,-78.12,-2.99
1511,1511,0.82,-0.71,-0.07,-235.41,-78.12,-2.99
1512,1512,0.85,-0.66,-0.12,-204.59,-78.12,-2.99
1513,1513,0.87,-0.63,-0.13,-181.76,-78.12,-2.99
1514,1514,0.89,-0.62,-0.11,-155.82,-78.12,-2.99
1515,1515,0.9,-0.65,-0.13,-134.34,-78.12,-2.99
1516,1516,0.91,-0.69,-0.18,-117.0,-78.12,-2.99
1517,1517,0.93,-0.74,-0.23,-98.14,-78.12,-2.99
1518,1518,0.98,-0.8,-0.27,-79.59,-93.75,-2.99
1519,1519,1.04,-0.84,-0.33,-63.78,-93.75,-2.99
1520,1520,1.11,-0.84,-0.39,-51.82,-93.75,-2.99
1521,1521,1.2,-0.8,-0.42,-44.86,-93.75,-2.99
1522,1522,1.27,-0.74,-0.46,-41.69,-78.12,-2.99
1523,1523,1.32,-0.66,-0.49,-43.4,-78.12,-2.99
1524,1524,1.33,-0.6,-0.52,-50.05,-62.5,-2.99
1525,1525,1.29,-0.59,-0.55,-58.84,-46.88,-2.99
1526,1526,1.21,-0.6,-0.56,-66.89,-31.25,-2.99
1527,1527,1.1,-0.64,-0.56,-71.9,-15.62,-2.99
1528,1528,0.99,-0.67,-0.55,-74.83,0.0,-2.99
1529,1529,0.93,-0.69,-0.53,-75.32,-15.62,-2.99
1530,1530,0.92,-0.69,-0.53,-77.27,-15.62,-2.99
1531,1531,1.02,-0.37,0.11,-99.91,-15.62,-2.99
1532,1532,1.06,-0.65,-0.7,-68.6,-46.88,-3.05
1533,1533,1.25,-0.84,-0.75,-79.22,-31.25,-3.05
1534,1534,1.45,-0.79,-0.61,-72.75,-31.25,-3.05
1535,1535,1.58,-0.82,-0.57,-56.64,-15.62,-3.05
1536,1536,1.64,-0.78,-0.55,-42.24,0.0,-3.05
1537,1537,1.63,-0.69,-0.51,-29.48,15.62,-3.05
1538,1538,1.57,-0.57,-0.46,-22.16,46.88,-3.05
1539,1539,1.49,-0.5,-0.48,-15.99,46.88,-3.05
1540,1540,1.43,-0.44,-0.46,-19.35,62.5,-3.05
1541,1541,1.38,-0.36,-0.43,-23.74,62.5,-3.05
1542,1542,1.35,-0.33,-0.41,-28.63,62.5,-3.05
1543,1543,1.33,-0.31,-0.4,-35.46,62.5,-3.05
1544,1544,1.31,-0.3,-0.38,-41.75,62.5,-3.05
1545,1545,1.29,-0.28,-0.36,-47.61,78.12,-3.05
1546,1546,1.27,-0.26,-0.36,-54.75,78.12,-3.05
1547,1547,1.24,-0.23,-0.35,-62.44,78.12,-3.05
1548,1548,1.21,-0.2,-0.33,-70.92,78.12,-3.05
1549,1549,1.18,-0.18,-0.32,-80.63,78.12,-3.05
1550,1550,1.15,-0.18,-0.3,-88.5,78.12,-3.05
1551,1551,1.12,-0.2,-0.28,-94.24,93.75,-3.05
1552,1552,1.08,-0.23,-0.26,-96.98,93.75,-3.05
1553,1553,1.06,-0.24,-0.25,-97.47,93.75,-3.05
1554,1554,1.03,-0.26,-0.23,-95.28,93.75,-3.05
1555,1555,1.0,-0.26,-0.21,-91.67,93.75,-3.05
1556,1556,0.95,-0.27,-0.21,-85.14,93.75,-3.05
1557,1557,0.91,-0.28,-0.19,-77.94,93.75,-3.05
1558,1558,0.86,-0.29,-0.18,-68.54,93.75,-3.05
1559,1559,0.82,-0.3,-0.17,-57.43,78.12,-3.05
1560,1560,0.79,-0.31,-0.16,-45.23,78.12,-3.05
1561,1561,0.76,-0.3,-0.16,-31.92,78.12,-3.05
1562,1562,0.75,-0.29,-0.15,-18.74,78.12,-3.05
1563,1563,0.72,-0.25,-0.13,4.82,78.12,-3.05
1564,1564,0.7,-0.22,-0.12,14.83,78.12,-3.05
1565,1565,0.69,-0.19,-0.12,22.03,62.5,-3.11
1566,1566,0.67,-0.17,-0.13,28.99,62.5,-3.11
1567,1567,0.64,-0.14,-0.13,34.36,62.5,-3.11
1568,1568,0.61,-0.12,-0.14,38.15,62.5,-3.11
1569,1569,0.58,-0.1,-0.14,40.34,62.5,-3.11
1570,1570,0.55,-0.08,-0.14,40.22,62.5,-3.11
1571,1571,0.52,-0.06,-0.15,38.51,62.5,-3.11
1572,1572,0.48,-0.05,-0.16,34.48,62.5,-3.11
1573,1573,0.46,-0.04,-0.15,30.03,46.88,-3.11
1574,1574,0.44,-0.05,-0.15,19.65,31.25,-3.11
1575,1575,0.44,-0.06,-0.13,15.44,31.25,-3.11
1576,1576,0.45,-0.08,-0.13,11.96,31.25,-3.11
1577,1577,0.47,-0.09,-0.13,9.4,15.62,-3.11
1578,1578,0.51,-0.1,-0.12,5.92,15.62,-3.11
1579,1579,0.54,-0.1,-0.12,2.69,15.62,-3.11
1580,1580,0.58,-0.11,-0.12,-0.31,0.0,-3.11
1581,1581,0.72,-0.12,-0.17,-13.92,-15.62,-3.11
1582,1582,0.77,-0.11,-0.18,-19.71,-15.62,-3.11
1583,1583,0.82,-0.1,-0.17,-25.76,-15.62,-3.11
1584,1584,0.87,-0.09,-0.17,-33.81,-15.62,-3.11
1585,1585,0.9,-0.08,-0.17,-42.36,-15.62,-3.11
1586,1586,1.18,-0.02,-0.01,-76.11,-31.25,-3.11
1587,1587,1.28,-0.03,0.03,-84.17,-31.25,-3.11
1588,1588,1.39,-0.06,0.06,-92.35,-31.25,-3.11
1589,1589,1.49,-0.12,0.07,-96.68,-31.25,-3.11
1590,1590,1.54,-0.19,0.05,-95.58,-15.62,-3.11
1591,1591,1.55,-0.26,0.0,-88.93,0.0,-3.11
1592,1592,1.5,-0.34,-0.06,-78.06,0.0,-3.11
1593,1593,1.42,-0.42,-0.13,-63.05,0.0,-3.11
1594,1594,1.34,-0.47,-0.21,-46.33,0.0,-3.17
1595,1595,1.28,-0.52,-0.28,-29.42,0.0,-3.17
1596,1596,1.24,-0.55,-0.37,-11.78,0.0,-3.17
1597,1597,1.21,-0.55,-0.41,2.08,0.0,-3.17
1598,1598,1.18,-0.52,-0.42,11.78,0.0,-3.17
1599,1599,1.17,-0.46,-0.4,15.44,0.0,-3.17
1600,1600,1.18,-0.35,-0.36,14.1,-15.62,-3.17
1601,1601,1.2,-0.23,-0.3,6.16,-15.62,-3.17
1602,1602,1.26,-0.09,-0.23,-7.02,-15.62,-3.17
1603,1603,1.33,-0.01,-0.18,-23.62,-31.25,-3.17
1604,1604,1.41,0.04,-0.11,-41.81,-15.62,-3.17
1605,1605,1.48,0.05,-0.07,-58.41,-15.62,-3.17
1606,1606,1.55,0.02,-0.04,-73.3,0.0,-3.17
1607,1607,1.58,-0.02,-0.01,-85.14,15.62,-3.17
1608,1608,1.58,-0.05,0.02,-95.4,31.25,-3.17
1609,1609,1.54,-0.07,0.04,-108.22,46.88,-3.17
1610,1610,1.5,-0.07,0.06,-120.97,62.5,-3.17
1611,1611,1.47,-0.07,0.09,-138.37,62.5,-3.17
1612,1612,1.46,-0.06,0.14,-161.8,78.12,-3.17
1613,1613,1.46,-0.06,0.2,-183.53,78.12,-3.17
1614,1614,1.46,-0.04,0.35,-213.81,93.75,-3.17
1615,1615,1.38,-0.03,0.4,-243.9,109.38,-3.17
1616,1616,1.31,-0.06,0.38,-267.88,109.38,-3.17
1617,1617,1.25,-0.12,0.38,-291.08,109.38,-3.17
1618,1618,1.22,-0.17,0.35,-310.73,109.38,-3.17
1619,1619,1.21,-0.22,0.29,-326.48,109.38,-3.17
1620,1620,1.2,-0.26,0.23,-341.74,109.38,-3.17
1621,1621,1.19,-0.28,0.15,-353.45,109.38,-3.17
1622,1622,1.15,-0.29,0.13,-364.56,109.38,-3.17
1623,1623,1.09,-0.31,0.15,-369.75,109.38,-3.17
1624,1624,0.96,-0.4,0.19,-361.39,78.12,-3.17
1625,1625,0.91,-0.43,0.22,-349.24,78.12,-3.17
1626,1626,0.88,-0.44,0.22,-331.85,62.5,-3.17
1627,1627,0.83,-0.45,0.21,-310.18,62.5,-3.23
1628,1628,0.81,-0.47,0.21,-283.87,46.88,-3.23
1629,1629,0.78,-0.49,0.2,-255.07,46.88,-3.23
1630,1630,0.75,-0.5,0.17,-227.05,31.25,-3.23
1631,1631,0.72,-0.51,0.15,-198.55,31.25,-3.23
1632,1632,0.72,-0.5,0.13,-167.79,15.62,-3.23
1633,1633,0.71,-0.49,0.12,-139.4,15.62,-3.23
1634,1634,0.71,-0.49,0.11,-112.24,0.0,-3.23
1635,1635,0.73,-0.5,0.09,-87.77,0.0,-3.23
1636,1636,0.75,-0.51,0.07,-63.11,0.0,-3.23
1637,1637,0.78,-0.52,0.06,-41.56,-15.62,-3.23
1638,1638,0.81,-0.53,0.04,-20.75,-15.62,-3.23
1639,1639,0.82,-0.54,0.02,-3.11,-15.62,-3.23
1640,1640,0.85,-0.55,0.02,13.37,-31.25,-3.23
1641,1641,0.85,-0.56,-0.02,28.5,-31.25,-3.23
1642,1642,0.86,-0.58,-0.07,43.64,-31.25,-3.23
1643,1643,0.89,-0.6,-0.1,57.98,-46.88,-3.23
1644,1644,0.94,-0.62,-0.12,69.34,-46.88,-3.23
1645,1645,0.98,-0.65,-0.13,78.25,-46.88,-3.23
1646,1646,1.03,-0.68,-0.14,84.41,-62.5,-3.23
1647,1647,1.07,-0.71,-0.14,88.56,-62.5,-3.23
1648,1648,1.11,-0.76,-0.13,89.84,-62.5,-3.23
1649,1649,1.14,-0.8,-0.13,86.0,-62.5,-3.23
1650,1650,1.15,-0.82,-0.15,79.28,-62.5,-3.23
1651,1651,1.16,-0.77,-0.19,74.34,-78.12,-3.23
1652,1652,1.18,-0.69,-0.26,73.12,-78.12,-3.23
1653,1653,1.24,-0.63,-0.34,71.72,-78.12,-3.23
1654,1654,1.33,-0.6,-0.4,65.61,-93.75,-3.23
1655,1655,1.44,-0.57,-0.45,55.3,-93.75,-3.23
1656,1656,1.52,-0.56,-0.48,42.42,-93.75,-3.23
1657,1657,1.53,-0.56,-0.51,32.59,-78.12,-3.23
1658,1658,1.48,-0.57,-0.54,24.48,-62.5,-3.23
1659,1659,1.27,-0.6,-0.56,17.46,-62.5,-3.23
1660,1660,1.2,-0.59,-0.55,14.89,-62.5,-3.3
1661,1661,1.13,-0.57,-0.57,11.78,-62.5,-3.3
1662,1662,1.09,-0.56,-0.56,8.48,-62.5,-3.3
1663,1663,0.99,-0.53,-0.52,1.4,-46.88,-3.3
1664,1664,0.94,-0.53,-0.5,1.59,-46.88,-3.3
1665,1665,0.9,-0.51,-0.49,2.44,-31.25,-3.3
1666,1666,0.9,-0.47,-0.45,2.75,-31.25,-3.3
1667,1667,0.91,-0.43,-0.41,2.62,-46.88,-3.3
1668,1668,0.99,-0.38,-0.34,-0.12,-46.88,-3.3
1669,1669,1.12,-0.35,-0.32,-1.95,-46.88,-3.3
1670,1670,1.22,-0.35,-0.28,-4.46,-46.88,-3.3
1671,1671,1.34,-0.35,-0.24,-5.98,-46.88,-3.3
1672,1672,1.47,-0.35,-0.19,-5.8,-31.25,-3.3
1673,1673,1.54,-0.38,-0.05,1.77,-15.62,-3.3
1674,1674,1.67,-0.4,-0.23,12.7,-15.62,-3.3
1675,1675,1.82,-0.46,-0.07,17.4,15.62,-3.3
1676,1676,1.82,-0.29,-0.11,37.66,46.88,-3.3
1677,1677,1.8,-0.27,-0.07,37.35,62.5,-3.3
1678,1678,1.78,-0.22,-0.1,37.72,62.5,-3.3
1679,1679,1.73,-0.23,-0.11,46.63,62.5,-3.3
1680,1680,1.73,-0.13,-0.15,34.73,78.12,-3.3
1681,1681,1.75,-0.22,-0.02,26.61,78.12,-3.3
1682,1682,1.62,-0.26,-0.05,43.76,78.12,-3.3
1683,1683,1.57,-0.17,-0.14,44.07,78.12,-3.3
1684,1684,1.59,-0.14,-0.16,42.79,93.75,-3.3
1685,1685,1.44,-0.12,-0.15,41.26,78.12,-3.3
1686,1686,1.41,-0.08,-0.18,35.83,78.12,-3.3
1687,1687,1.34,-0.07,-0.17,29.17,78.12,-3.3
1688,1688,1.28,-0.05,-0.17,23.44,78.12,-3.3
1689,1689,1.24,-0.04,-0.19,16.3,62.5,-3.3
1690,1690,1.23,-0.0,-0.17,10.25,62.5,-3.3
1691,1691,1.21,0.03,-0.15,3.72,62.5,-3.3
1692,1692,1.19,0.05,-0.14,-2.26,46.88,-3.36
1693,1693,1.17,0.06,-0.12,-6.9,46.88,-3.36
1694,1694,1.12,0.08,-0.1,-10.25,46.88,-3.36
1695,1695,1.08,0.1,-0.08,-11.47,46.88,-3.36
1696,1696,1.01,0.13,-0.02,-11.84,62.5,-3.36
1697,1697,0.95,0.14,-0.06,-14.34,46.88,-3.36
1698,1698,0.91,0.18,-0.06,-20.26,62.5,-3.36
1699,1699,0.85,0.19,-0.01,-23.19,62.5,-3.36
1700,1700,0.81,0.16,-0.02,-28.63,62.5,-3.36
1701,1701,0.79,0.12,-0.02,-34.06,46.88,-3.36
1702,1702,0.81,0.07,-0.0,-35.64,46.88,-3.36
1703,1703,0.86,0.0,-0.0,-36.44,46.88,-3.36
1704,1704,0.9,-0.03,0.0,-34.61,46.88,-3.36
1705,1705,0.96,-0.07,-0.0,-30.64,46.88,-3.36
1706,1706,0.99,-0.08,0.0,-26.37,62.5,-3.36
1707,1707,0.99,-0.09,0.0,-22.28,62.5,-3.36
1708,1708,0.96,-0.07,-0.0,-18.01,78.12,-3.36
1709,1709,0.91,-0.05,0.0,-15.87,78.12,-3.36
1710,1710,0.85,-0.03,-0.01,-12.33,78.12,-3.36
1711,1711,0.83,-0.02,-0.0,-10.86,78.12,-3.36
1712,1712,0.81,-0.03,-0.0,-10.13,78.12,-3.36
1713,1713,0.81,-0.03,-0.02,-9.16,78.12,-3.36
1714,1714,0.82,-0.04,-0.03,-8.48,78.12,-3.36
1715,1715,0.81,-0.04,-0.04,-7.14,78.12,-3.36
1716,1716,0.82,-0.04,-0.04,-7.26,78.12,-3.36
1717,1717,0.82,-0.04,-0.05,-7.87,78.12,-3.36
1718,1718,0.87,-0.04,-0.05,-11.6,78.12,-3.36
1719,1719,0.9,-0.04,-0.05,-16.11,78.12,-3.36
1720,1720,0.94,-0.06,-0.04,-20.69,78.12,-3.36
1721,1721,0.98,-0.09,-0.02,-26.31,78.12,-3.36
1722,1722,1.0,-0.14,-0.03,-30.15,78.12,-3.36
1723,1723,0.99,-0.18,-0.04,-33.87,78.12,-3.36
1724,1724,0.96,-0.22,-0.06,-38.09,78.12,-3.36
1725,1725,0.95,-0.23,-0.07,-40.41,78.12,-3.42
1726,1726,0.93,-0.26,-0.08,-43.58,62.5,-3.42
1727,1727,0.93,-0.28,-0.1,-47.18,62.5,-3.42
1728,1728,0.97,-0.31,-0.12,-50.66,46.88,-3.42
1729,1729,1.0,-0.33,-0.15,-52.73,46.88,-3.42
1730,1730,1.06,-0.34,-0.16,-55.24,46.88,-3.42
1731,1731,1.1,-0.34,-0.18,-59.02,46.88,-3.42
1732,1732,1.16,-0.32,-0.19,-63.78,46.88,-3.42
1733,1733,1.2,-0.31,-0.19,-68.85,46.88,-3.42
1734,1734,1.24,-0.31,-0.2,-74.83,46.88,-3.42
1735,1735,1.28,-0.3,-0.17,-83.07,46.88,-3.42
1736,1736,1.3,-0.29,-0.13,-90.21,46.88,-3.42
1737,1737,1.34,-0.27,-0.08,-98.45,46.88,-3.42
1738,1738,1.38,-0.24,-0.03,-108.46,46.88,-3.42
1739,1739,1.41,-0.2,0.02,-120.61,46.88,-3.42
1740,1740,1.45,-0.18,0.06,-134.28,62.5,-3.42
1741,1741,1.48,-0.17,0.12,-149.41,62.5,-3.42
1742,1742,1.54,0.2,-0.13,-282.59,62.5,-3.42
1743,1743,1.52,0.51,0.09,-382.08,78.12,-3.42
1744,1744,1.63,0.15,0.32,-371.4,78.12,-3.42
1745,1745,1.71,-0.62,0.51,-316.04,93.75,-3.42
1746,1746,1.75,-0.86,0.45,-298.34,109.38,-3.42
1747,1747,1.73,-0.46,0.43,-278.38,109.38,-3.42
1748,1748,1.68,-0.15,0.44,-270.75,125.0,-3.42
1749,1749,1.63,0.03,0.23,-333.07,125.0,-3.42
1750,1750,1.65,0.07,0.19,-402.22,156.25,-3.42
1751,1751,1.55,-0.22,0.43,-409.18,171.88,-3.42
1752,1752,1.45,-0.52,0.44,-385.25,171.88,-3.42
1753,1753,1.16,-0.7,0.27,-361.69,109.38,-3.42
1754,1754,1.52,-0.51,0.15,-353.03,140.62,-3.42
1755,1755,1.42,-0.26,0.31,-354.06,156.25,-3.42
1756,1756,1.18,-0.38,0.13,-327.03,93.75,-3.42
1757,1757,1.36,-0.62,0.25,-310.12,125.0,-3.42
1758,1758,1.27,-0.64,0.33,-267.94,125.0,-3.48
1759,1759,1.19,-0.6,0.18,-233.52,109.38,-3.48
1760,1760,1.11,-0.52,0.2,-200.26,93.75,-3.48
1761,1761,1.1,-0.44,0.25,-173.4,78.12,-3.48
1762,1762,1.1,-0.34,0.21,-160.28,78.12,-3.48
1763,1763,1.11,-0.27,0.2,-155.09,78.12,-3.48
1764,1764,1.09,-0.26,0.21,-150.15,78.12,-3.48
1765,1765,1.07,-0.28,0.21,-147.46,62.5,-3.48
1766,1766,1.04,-0.33,0.22,-138.43,62.5,-3.48
1767,1767,1.02,-0.37,0.22,-126.95,62.5,-3.48
1768,1768,1.02,-0.37,0.22,-115.84,46.88,-3.48
1769,1769,1.02,-0.32,0.21,-108.83,46.88,-3.48
1770,1770,1.03,-0.28,0.21,-108.7,46.88,-3.48
1771,1771,1.03,-0.24,0.19,-112.98,46.88,-3.48
1772,1772,1.01,-0.25,0.18,-117.74,46.88,-3.48
1773,1773,0.99,-0.3,0.18,-118.65,31.25,-3.48
1774,1774,0.99,-0.35,0.17,-114.75,31.25,-3.48
1775,1775,0.98,-0.39,0.16,-104.06,31.25,-3.48
1776,1776,0.98,-0.42,0.14,-90.94,15.62,-3.48
1777,1777,0.97,-0.42,0.12,-76.97,15.62,-3.48
1778,1778,0.95,-0.39,0.09,-65.25,15.62,-3.48
1779,1779,0.93,-0.36,0.06,-56.46,0.0,-3.48
1780,1780,0.91,-0.35,0.03,-50.66,0.0,-3.48
1781,1781,0.89,-0.34,0.02,-47.85,-15.62,-3.48
1782,1782,0.87,-0.33,0.0,-44.8,-15.62,-3.48
1783,1783,0.85,-0.33,-0.02,-42.97,-15.62,-3.48
1784,1784,0.85,-0.34,-0.04,-40.83,-31.25,-3.48
1785,1785,0.84,-0.35,-0.06,-39.55,-31.25,-3.48
1786,1786,0.84,-0.37,-0.07,-36.62,-31.25,-3.48
1787,1787,0.83,-0.4,-0.1,-34.06,-46.88,-3.48
1788,1788,0.82,-0.43,-0.14,-31.49,-46.88,-3.48
1789,1789,0.81,-0.46,-0.17,-26.98,-46.88,-3.48
1790,1790,0.8,-0.5,-0.21,-20.51,-62.5,-3.48
1791,1791,0.8,-0.52,-0.26,-14.65,-62.5,-3.48
1792,1792,0.8,-0.56,-0.29,-8.91,-62.5,-3.48
1793,1793,0.81,-0.57,-0.35,-4.82,-78.12,-3.54
1794,1794,0.83,-0.54,-0.41,-2.38,-78.12,-3.54
1795,1795,0.85,-0.5,-0.46,-0.61,-78.12,-3.54
1796,1796,0.87,-0.47,-0.5,1.04,-93.75,-3.54
1797,1797,0.9,-0.46,-0.52,3.42,-93.75,-3.54
1798,1798,0.92,-0.47,-0.53,7.32,-93.75,-3.54
1799,1799,0.94,-0.5,-0.53,11.47,-93.75,-3.54
1800,1800,0.98,-0.57,-0.53,17.21,-93.75,-3.54
1801,1801,1.02,-0.65,-0.52,24.23,-93.75,-3.54
1802,1802,1.04,-0.74,-0.52,31.92,-93.75,-3.54
1803,1803,1.05,-0.81,-0.5,39.92,-93.75,-3.54
1804,1804,1.05,-0.89,-0.49,50.42,-78.12,-3.54
1805,1805,1.03,-0.93,-0.52,63.23,-78.12,-3.54
1806,1806,1.02,-0.93,-0.58,75.13,-78.12,-3.54
1807,1807,1.02,-0.89,-0.64,86.43,-78.12,-3.54
1808,1808,1.03,-0.81,-0.69,95.95,-62.5,-3.54
1809,1809,1.03,-0.73,-0.73,100.46,-62.5,-3.54
1810,1810,1.04,-0.65,-0.75,102.29,-62.5,-3.54
1811,1811,1.07,-0.6,-0.78,100.16,-62.5,-3.54
1812,1812,1.12,-0.54,-0.79,95.95,-62.5,-3.54
1813,1813,1.18,-0.49,-0.81,94.42,-62.5,-3.54
1814,1814,1.27,-0.45,-0.8,91.8,-62.5,-3.54
1815,1815,1.33,-0.43,-0.8,88.87,-46.88,-3.54
1816,1816,1.4,-0.41,-0.8,83.98,-46.88,-3.54
1817,1817,1.46,-0.4,-0.78,78.19,-31.25,-3.54
1818,1818,1.52,-0.38,-0.77,68.91,-15.62,-3.54
1819,1819,1.53,-0.36,-0.82,62.26,-15.62,-3.54
1820,1820,1.58,-0.61,-0.7,88.56,0.0,-3.54
1821,1821,1.63,-0.4,-0.9,63.35,15.62,-3.54
1822,1822,1.65,-0.43,-0.68,111.69,31.25,-3.54
1823,1823,1.63,-0.23,-0.61,197.75,62.5,-3.54
1824,1824,1.71,0.1,-0.54,189.03,78.12,-3.54
1825,1825,1.61,0.16,-0.39,169.07,93.75,-3.54
1826,1826,1.46,-0.12,-0.24,175.72,93.75,-3.6
1827,1827,1.29,-0.31,-0.35,171.88,93.75,-3.6
1828,1828,1.23,-0.13,-0.41,172.36,109.38,-3.6
1829,1829,1.21,-0.08,-0.4,184.51,109.38,-3.6
1830,1830,1.15,-0.09,-0.43,177.92,109.38,-3.6
1831,1831,1.18,-0.1,-0.49,155.76,93.75,-3.6
1832,1832,1.21,-0.12,-0.5,135.38,93.75,-3.6
1833,1833,1.27,-0.12,-0.49,107.67,109.38,-3.6
1834,1834,1.35,-0.12,-0.44,75.74,109.38,-3.6
1835,1835,1.41,-0.08,-0.34,37.23,125.0,-3.6
1836,1836,1.39,-0.05,-0.2,-21.12,140.62,-3.6
1837,1837,1.35,-0.06,-0.16,-36.01,140.62,-3.6
1838,1838,1.31,-0.07,-0.13,-44.56,125.0,-3.6
1839,1839,1.31,-0.05,-0.1,-48.16,125.0,-3.6
1840,1840,1.31,-0.03,-0.09,-53.1,125.0,-3.6
1841,1841,1.31,-0.01,-0.07,-59.75,125.0,-3.6
1842,1842,1.29,-0.02,-0.06,-67.02,140.62,-3.6
1843,1843,1.25,-0.06,-0.04,-74.1,140.62,-3.6
1844,1844,1.2,-0.09,-0.02,-78.55,140.62,-3.6
1845,1845,1.14,-0.14,-0.02,-81.54,140.62,-3.6
1846,1846,1.11,-0.16,-0.01,-82.7,125.0,-3.6
1847,1847,1.08,-0.17,0.01,-85.02,125.0,-3.6
1848,1848,1.04,-0.18,0.02,-87.1,125.0,-3.6
1849,1849,1.01,-0.17,0.04,-89.9,125.0,-3.6
1850,1850,0.98,-0.15,0.05,-94.06,125.0,-3.6
1851,1851,0.95,-0.13,0.06,-99.43,109.38,-3.6
1852,1852,0.92,-0.11,0.06,-105.65,109.38,-3.6
1853,1853,0.89,-0.11,0.06,-111.94,109.38,-3.6
1854,1854,0.87,-0.1,0.04,-117.86,93.75,-3.6
1855,1855,0.85,-0.11,0.04,-122.13,93.75,-3.6
1856,1856,0.83,-0.12,0.03,-125.24,78.12,-3.6
1857,1857,0.81,-0.13,0.03,-128.05,78.12,-3.6
1858,1858,0.78,-0.13,0.01,-128.66,62.5,-3.6
1859,1859,0.75,-0.14,0.0,-127.69,62.5,-3.66
1860,1860,0.71,-0.15,-0.01,-125.49,62.5,-3.66
1861,1861,0.68,-0.16,-0.02,-122.5,46.88,-3.66
1862,1862,0.65,-0.19,-0.04,-107.12,31.25,-3.66
1863,1863,0.65,-0.21,-0.05,-97.29,15.62,-3.66
1864,1864,0.65,-0.24,-0.05,-83.8,15.62,-3.66
1865,1865,0.65,-0.25,-0.07,-68.85,0.0,-3.66
1866,1866,0.66,-0.26,-0.08,-50.84,0.0,-3.66
1867,1867,0.67,-0.26,-0.09,-33.45,0.0,-3.66
1868,1868,0.67,-0.26,-0.09,-15.87,-15.62,-3.66
1869,1869,0.68,-0.25,-0.09,-0.49,-15.62,-3.66
1870,1870,0.67,-0.24,-0.09,14.34,-15.62,-3.66
1871,1871,0.67,-0.22,-0.1,27.04,-15.62,-3.66
1872,1872,0.67,-0.2,-0.1,37.23,-31.25,-3.66
1873,1873,0.66,-0.19,-0.11,44.92,-31.25,-3.66
1874,1874,0.66,-0.17,-0.11,50.78,-31.25,-3.66
1875,1875,0.66,-0.16,-0.12,54.26,-31.25,-3.66
1876,1876,0.66,-0.14,-0.11,56.15,-31.25,-3.66
1877,1877,0.66,-0.12,-0.1,55.66,-31.25,-3.66
1878,1878,0.66,-0.11,-0.09,54.2,-46.88,-3.66
1879,1879,0.67,-0.1,-0.09,52.31,-46.88,-3.66
1880,1880,0.68,-0.11,-0.09,49.07,-46.88,-3.66
1881,1881,0.7,-0.11,-0.1,47.97,-46.88,-3.66
1882,1882,0.74,-0.12,-0.12,46.51,-62.5,-3.66
1883,1883,0.76,-0.13,-0.16,47.97,-62.5,-3.66
1884,1884,0.8,-0.15,-0.23,51.33,-62.5,-3.66
1885,1885,0.83,-0.18,-0.29,56.7,-62.5,-3.66
1886,1886,0.85,-0.21,-0.35,65.37,-62.5,-3.66
1887,1887,0.85,-0.22,-0.37,74.89,-62.5,-3.66
1888,1888,0.85,-0.23,-0.37,85.27,-62.5,-3.66
1889,1889,0.85,-0.22,-0.36,92.77,-62.5,-3.66
1890,1890,0.86,-0.19,-0.32,99.55,-62.5,-3.66
1891,1891,0.87,-0.15,-0.29,100.89,-62.5,-3.66
1892,1892,0.88,-0.12,-0.24,98.14,-62.5,-3.72
1893,1893,0.89,-0.08,-0.21,92.59,-62.5,-3.72
1894,1894,0.92,-0.06,-0.17,85.39,-62.5,-3.72
1895,1895,0.95,-0.04,-0.12,79.41,-62.5,-3.72
1896,1896,0.99,-0.03,-0.03,81.97,-78.12,-3.72
1897,1897,1.08,-0.05,0.02,87.16,-93.75,-3.72
1898,1898,1.26,-0.06,0.01,89.48,-109.38,-3.72
1899,1899,1.45,-0.03,-0.06,87.95,-109.38,-3.72
1900,1900,1.68,0.04,-0.15,82.28,-93.75,-3.72
1901,1901,1.83,0.08,-0.19,73.73,-78.12,-3.72
1902,1902,1.89,0.07,-0.21,63.17,-62.5,-3.72
1903,1903,1.86,0.04,-0.22,52.49,-62.5,-3.72
1904,1904,1.8,0.01,-0.23,41.08,-62.5,-3.72
1905,1905,1.75,0.0,-0.27,21.85,-62.5,-3.72
1906,1906,1.68,0.01,-0.33,0.06,-62.5,-3.72
1907,1907,1.62,0.01,-0.38,-28.87,-78.12,-3.72
1908,1908,1.52,-0.01,-0.42,-58.04,-78.12,-3.72
1909,1909,1.42,-0.03,-0.44,-88.2,-78.12,-3.72
1910,1910,1.33,-0.08,-0.43,-112.12,-78.12,-3.72
1911,1911,1.27,-0.12,-0.41,-130.92,-93.75,-3.72
1912,1912,1.25,-0.13,-0.4,-142.76,-93.75,-3.72
1913,1913,1.24,-0.16,-0.37,-158.94,-109.38,-3.72
1914,1914,1.3,-0.17,-0.34,-168.76,-125.0,-3.72
1915,1915,1.38,-0.15,-0.34,-173.58,-125.0,-3.72
1916,1916,1.49,-0.13,-0.36,-179.57,-125.0,-3.72
1917,1917,1.59,-0.11,-0.39,-186.46,-125.0,-3.72
1918,1918,1.68,-0.09,-0.41,-194.89,-109.38,-3.72
1919,1919,1.72,-0.11,-0.39,-204.41,-93.75,-3.72
1920,1920,1.73,-0.13,-0.31,-217.71,-78.12,-3.72
1921,1921,1.65,-0.19,-0.21,-227.36,-62.5,-3.72
1922,1922,1.53,-0.27,-0.08,-234.99,-46.88,-3.72
1923,1923,1.41,-0.35,-0.05,-231.26,-46.88,-3.72
1924,1924,1.36,-0.38,-0.04,-223.45,-31.25,-3.72
1925,1925,1.34,-0.37,-0.04,-213.93,-31.25,-3.72
1926,1926,1.33,-0.32,-0.06,-205.93,-31.25,-3.78
1927,1927,1.31,-0.25,-0.06,-198.43,-15.62,-3.78
1928,1928,1.27,-0.18,-0.06,-195.43,-15.62,-3.78
1929,1929,1.22,-0.14,-0.06,-193.54,0.0,-3.78
1930,1930,1.16,-0.15,-0.06,-188.66,0.0,-3.78
1931,1931,1.09,-0.2,-0.04,-178.77,0.0,-3.78
1932,1932,1.03,-0.27,-0.03,-165.89,0.0,-3.78
1933,1933,0.99,-0.32,-0.04,-150.09,0.0,-3.78
1934,1934,0.95,-0.35,-0.06,-133.12,0.0,-3.78
1935,1935,0.92,-0.36,-0.09,-118.29,0.0,-3.78
1936,1936,0.9,-0.38,-0.11,-104.86,0.0,-3.78
1937,1937,0.88,-0.4,-0.12,-93.02,0.0,-3.78
1938,1938,0.87,-0.44,-0.14,-81.91,0.0,-3.78
1939,1939,0.87,-0.49,-0.15,-69.15,0.0,-3.78
1940,1940,0.87,-0.55,-0.14,-54.63,0.0,-3.78
1941,1941,0.86,-0.6,-0.13,-38.33,0.0,-3.78
1942,1942,0.84,-0.66,-0.11,-17.58,0.0,-3.78
1943,1943,0.79,-0.78,-0.12,34.48,15.62,-3.78
1944,1944,0.75,-0.84,-0.16,63.9,0.0,-3.78
1945,1945,0.73,-0.88,-0.18,92.71,0.0,-3.78
1946,1946,0.71,-0.92,-0.22,123.05,0.0,-3.78
1947,1947,0.7,-0.95,-0.27,148.74,0.0,-3.78
1948,1948,0.72,-0.99,-0.32,172.36,-15.62,-3.78
1949,1949,0.78,-0.91,-0.31,197.51,-15.62,-3.78
1950,1950,0.81,-0.78,-0.32,209.35,-31.25,-3.78
1951,1951,0.85,-0.67,-0.34,220.21,-31.25,-3.78
1952,1952,0.89,-0.58,-0.36,224.55,-31.25,-3.78
1953,1953,0.94,-0.46,-0.38,222.35,-31.25,-3.78
1954,1954,0.98,-0.36,-0.39,214.42,-31.25,-3.78
1955,1955,1.02,-0.27,-0.39,199.16,-15.62,-3.78
1956,1956,1.05,-0.23,-0.39,179.14,-15.62,-3.78
1957,1957,1.07,-0.22,-0.38,159.12,-15.62,-3.78
1958,1958,1.09,-0.23,-0.37,139.59,-15.62,-3.85
1959,1959,1.12,-0.24,-0.35,121.77,-15.62,-3.85
1960,1960,1.16,-0.22,-0.35,104.74,0.0,-3.85
1961,1961,1.2,-0.21,-0.34,91.25,0.0,-3.85
1962,1962,1.26,-0.21,-0.31,78.74,0.0,-3.85
1963,1963,1.33,-0.22,-0.27,68.36,-15.62,-3.85
1964,1964,1.47,-0.26,-0.23,59.81,-15.62,-3.85
1965,1965,1.64,-0.29,-0.21,53.59,-15.62,-3.85
1966,1966,1.86,-0.32,-0.2,48.83,-15.62,-3.85
1967,1967,2.05,-0.34,-0.17,47.18,15.62,-3.85
1968,1968,2.12,-0.34,-0.15,49.5,31.25,-3.85
1969,1969,2.1,-0.34,-0.15,55.73,62.5,-3.85
1970,1970,2.01,-0.32,-0.14,62.93,78.12,-3.85
1971,1971,1.89,-0.27,-0.13,70.19,93.75,-3.85
1972,1972,1.8,-0.24,-0.13,76.66,93.75,-3.85
1973,1973,1.74,-0.21,-0.11,80.63,93.75,-3.85
1974,1974,1.68,-0.18,-0.12,83.8,93.75,-3.85
1975,1975,1.71,-1.53,1.48,319.82,109.38,-3.85
1976,1976,1.53,-0.82,-0.54,197.39,78.12,-3.85
1977,1977,1.73,-0.02,-0.23,261.84,125.0,-3.85
1978,1978,1.57,0.45,-0.21,233.03,140.62,-3.85
1979,1979,1.41,0.63,-0.2,166.44,156.25,-3.85
1980,1980,1.25,0.28,-0.04,125.06,140.62,-3.85
1981,1981,1.22,0.01,0.03,111.45,109.38,-3.85
1982,1982,1.36,-0.15,0.08,170.04,109.38,-3.85
1983,1983,1.44,-0.03,0.0,171.33,109.38,-3.85
1984,1984,1.51,0.07,-0.02,165.1,109.38,-3.85
1985,1985,1.57,0.3,-0.26,105.22,109.38,-3.85
1986,1986,1.55,0.21,-0.21,62.99,125.0,-3.85
1987,1987,1.66,0.01,0.02,35.58,109.38,-3.85
1988,1988,1.52,-0.01,-0.12,5.62,109.38,-3.85
1989,1989,1.46,-0.17,-0.04,-5.0,93.75,-3.85
1990,1990,1.46,-0.19,-0.05,-10.44,125.0,-3.85
1991,1991,1.3,-0.16,-0.05,-18.62,93.75,-3.91
1992,1992,1.28,-0.12,-0.06,-25.82,93.75,-3.91
1993,1993,1.2,-0.06,-0.07,-36.62,93.75,-3.91
1994,1994,1.15,-0.06,-0.08,-47.91,78.12,-3.91
1995,1995,1.1,-0.08,-0.07,-55.91,78.12,-3.91
1996,1996,1.08,-0.12,-0.06,-62.56,78.12,-3.91
1997,1997,1.04,-0.16,-0.03,-65.25,78.12,-3.91
1998,1998,1.03,-0.18,-0.01,-66.1,62.5,-3.91
1999,1999,1.02,-0.2,0.01,-63.96,62.5,-3.91
2000,2000,1.0,-0.2,0.03,-59.33,62.5,-3.91
2001,2001,0.98,-0.2,0.05,-54.87,62.5,-3.91
2002,2002,0.94,-0.18,0.06,-49.13,62.5,-3.91
2003,2003,0.9,-0.16,0.06,-44.19,62.5,-3.91
2004,2004,0.85,-0.13,0.04,-40.59,62.5,-3.91
2005,2005,0.82,-0.07,0.04,-37.17,78.12,-3.91
2006,2006,0.77,-0.04,0.07,-35.28,78.12,-3.91
2007,2007,0.72,-0.03,0.06,-35.89,78.12,-3.91
2008,2008,0.68,-0.0,0.08,-40.53,78.12,-3.91
2009,2009,0.65,0.03,0.13,-45.59,62.5,-3.91
2010,2010,0.63,0.03,0.13,-52.0,62.5,-3.91
2011,2011,0.61,0.04,0.13,-60.73,62.5,-3.91
2012,2012,0.62,0.03,0.14,-69.46,46.88,-3.91
2013,2013,0.65,0.01,0.14,-76.23,46.88,-3.91
2014,2014,0.69,-0.02,0.12,-80.81,46.88,-3.91
2015,2015,0.72,-0.06,0.11,-81.54,31.25,-3.91
2016,2016,0.77,-0.1,0.08,-78.49,31.25,-3.91
2017,2017,0.79,-0.12,0.05,-73.18,31.25,-3.91
2018,2018,0.81,-0.15,0.04,-65.61,31.25,-3.91
2019,2019,0.82,-0.17,0.02,-54.87,31.25,-3.91
2020,2020,0.82,-0.18,0.01,-43.7,15.62,-3.91
2021,2021,0.81,-0.2,-0.01,-31.19,15.62,-3.91
2022,2022,0.79,-0.2,-0.01,-16.66,15.62,-3.91
2023,2023,0.78,-0.21,-0.02,-2.5,15.62,-3.91
2024,2024,0.76,-0.2,-0.03,13.0,0.0,-3.91
2025,2025,0.75,-0.18,-0.04,26.92,0.0,-3.97
2026,2026,0.78,-0.15,-0.02,38.27,-15.62,-3.97
2027,2027,0.83,-0.11,0.01,45.17,-15.62,-3.97
2028,2028,0.92,-0.08,0.05,48.16,-31.25,-3.97
2029,2029,0.97,-0.08,0.06,49.56,-31.25,-3.97
2030,2030,1.02,-0.1,0.06,48.71,-46.88,-3.97
2031,2031,1.02,-0.14,0.05,48.95,-46.88,-3.97
2032,2032,0.99,-0.16,0.03,48.95,-46.88,-3.97
2033,2033,0.93,-0.18,-0.01,51.09,-46.88,-3.97
2034,2034,0.87,-0.2,-0.05,53.83,-62.5,-3.97
2035,2035,0.83,-0.22,-0.1,59.57,-62.5,-3.97
2036,2036,0.8,-0.24,-0.19,67.02,-78.12,-3.97
2037,2037,0.8,-0.26,-0.26,74.83,-93.75,-3.97
2038,2038,0.79,-0.3,-0.32,86.85,-93.75,-3.97
2039,2039,0.78,-0.31,-0.37,100.04,-109.38,-3.97
2040,2040,0.75,-0.32,-0.41,116.52,-109.38,-3.97
2041,2041,0.72,-0.32,-0.42,131.29,-109.38,-3.97
2042,2042,0.69,-0.3,-0.42,146.48,-125.0,-3.97
2043,2043,0.66,-0.27,-0.42,160.46,-125.0,-3.97
2044,2044,0.63,-0.25,-0.41,172.73,-140.62,-3.97
2045,2045,0.62,-0.23,-0.38,185.67,-140.62,-3.97
2046,2046,0.65,-0.2,-0.33,196.9,-156.25,-3.97
2047,2047,0.7,-0.17,-0.29,206.67,-171.88,-3.97
2048,2048,0.8,-0.15,-0.26,213.68,-187.5,-3.97
2049,2049,0.92,-0.14,-0.24,216.98,-203.12,-3.97
2050,2050,1.09,-0.13,-0.22,218.14,-218.75,-3.97
2051,2051,1.25,-0.13,-0.2,217.65,-218.75,-3.97
2052,2052,1.43,-0.12,-0.19,217.96,-218.75,-3.97
2053,2053,1.61,-0.11,-0.21,220.52,-218.75,-3.97
2054,2054,1.78,-0.14,-0.23,225.65,-203.12,-3.97
2055,2055,1.9,-0.19,-0.24,234.31,-171.88,-3.97
2056,2056,1.93,-0.24,-0.27,246.03,-156.25,-3.97
2057,2057,1.89,-0.28,-0.28,260.62,-140.62,-3.97
2058,2058,1.85,-0.29,-0.29,271.36,-140.62,-3.97
2059,2059,1.82,-0.24,-0.31,272.34,-125.0,-3.97
2060,2060,1.79,-0.14,-0.38,264.77,-125.0,-4.03
2061,2061,1.75,-0.05,-0.5,245.79,-109.38,-4.03
2062,2062,1.68,-0.0,-0.6,221.8,-109.38,-4.03
2063,2063,1.59,0.01,-0.67,196.72,-109.38,-4.03
2064,2064,1.48,-0.0,-0.73,171.94,-109.38,-4.03
2065,2065,1.39,-0.0,-0.76,146.3,-109.38,-4.03
2066,2066,1.27,-0.03,-0.78,121.77,-93.75,-4.03
2067,2067,1.18,-0.05,-0.75,99.98,-93.75,-4.03
2068,2068,1.07,-0.05,-0.71,77.82,-93.75,-4.03
2069,2069,1.0,-0.04,-0.67,57.01,-93.75,-4.03
2070,2070,0.96,-0.05,-0.63,45.53,-93.75,-4.03
2071,2071,0.96,-0.09,-0.58,25.63,-93.75,-4.03
2072,2072,1.02,-0.2,-0.51,26.37,-78.12,-4.03
2073,2073,1.03,-0.24,-0.47,33.45,-78.12,-4.03
2074,2074,1.03,-0.25,-0.46,41.32,-62.5,-4.03
2075,2075,1.02,-0.25,-0.47,49.93,-46.88,-4.03
2076,2076,1.01,-0.23,-0.48,58.23,-46.88,-4.03
2077,2077,1.01,-0.23,-0.49,65.31,-31.25,-4.03
2078,2078,1.0,-0.23,-0.48,73.43,-31.25,-4.03
2079,2079,0.99,-0.24,-0.49,81.73,-31.25,-4.03
2080,2080,0.98,-0.25,-0.51,96.25,-15.62,-4.03
2081,2081,0.99,-0.25,-0.53,103.21,-15.62,-4.03
2082,2082,1.0,-0.24,-0.54,110.72,-15.62,-4.03
2083,2083,1.03,-0.24,-0.54,117.37,-15.62,-4.03
2084,2084,1.05,-0.24,-0.54,123.41,-15.62,-4.03
2085,2085,1.07,-0.24,-0.53,130.31,-15.62,-4.03
2086,2086,1.18,-0.23,-0.5,151.0,-15.62,-4.03
2087,2087,1.23,-0.22,-0.5,155.94,0.0,-4.03
2088,2088,1.28,-0.21,-0.49,158.2,0.0,-4.03
2089,2089,1.32,-0.19,-0.47,158.33,15.62,-4.09
2090,2090,1.35,-0.17,-0.47,156.74,15.62,-4.09
2091,2091,1.35,-0.15,-0.44,152.1,31.25,-4.09
2092,2092,1.32,-0.13,-0.43,144.1,46.88,-4.09
2093,2093,1.19,-0.06,-0.39,122.8,62.5,-4.09
2094,2094,1.07,0.04,-0.34,83.01,78.12,-4.09
2095,2095,1.05,0.07,-0.29,38.7,93.75,-4.09
2096,2096,1.05,0.07,-0.27,18.86,93.75,-4.09
2097,2097,1.02,0.04,-0.15,8.42,93.75,-4.09
2098,2098,0.96,-0.33,0.48,157.96,93.75,-4.09
2099,2099,0.89,-0.81,0.4,311.16,78.12,-4.09
2100,2100,1.15,0.27,-0.11,276.25,109.38,-4.09
2101,2101,1.01,0.63,-0.19,261.11,156.25,-4.09
2102,2102,0.73,0.06,-0.11,248.23,125.0,-4.09
2103,2103,0.79,-0.12,-0.09,210.57,93.75,-4.09
2104,2104,1.02,0.1,-0.12,169.86,78.12,-4.09
2105,2105,1.17,0.34,-0.19,122.62,78.12,-4.09
2106,2106,1.27,0.47,-0.25,59.27,93.75,-4.09
2107,2107,1.29,0.44,-0.25,-15.08,93.75,-4.09
2108,2108,1.3,0.32,-0.24,-76.6,93.75,-4.09
2109,2109,1.36,0.18,-0.22,-126.71,93.75,-4.09
2110,2110,1.49,-0.0,-0.15,-164.98,109.38,-4.09
2111,2111,1.54,-0.11,-0.11,-176.82,125.0,-4.09
2112,2112,1.57,-0.21,-0.07,-179.75,140.62,-4.09
2113,2113,1.56,-0.29,0.02,-179.93,156.25,-4.09
2114,2114,1.49,-0.33,0.1,-177.25,156.25,-4.09
2115,2115,1.39,-0.36,0.14,-172.18,171.88,-4.09
2116,2116,1.32,-0.38,0.13,-168.09,171.88,-4.09
2117,2117,1.27,-0.39,0.11,-164.61,171.88,-4.09
2118,2118,1.24,-0.39,0.1,-162.41,171.88,-4.09
2119,2119,1.24,-0.4,0.08,-158.14,171.88,-4.09
2120,2120,1.23,-0.41,0.08,-153.75,156.25,-4.15
2121,2121,1.23,-0.41,0.08,-147.83,156.25,-4.15
2122,2122,1.22,-0.39,0.09,-139.4,156.25,-4.15
2123,2123,1.23,-0.32,0.1,-121.28,156.25,-4.15
2124,2124,1.23,-0.27,0.1,-114.07,156.25,-4.15
2125,2125,1.23,-0.23,0.11,-110.84,140.62,-4.15
2126,2126,1.24,-0.19,0.11,-109.86,140.62,-4.15
2127,2127,1.26,-0.16,0.12,-111.08,140.62,-4.15
2128,2128,1.28,-0.14,0.14,-115.6,140.62,-4.15
2129,2129,1.31,-0.11,0.16,-122.56,140.62,-4.15
2130,2130,1.34,-0.08,0.18,-131.53,125.0,-4.15
2131,2131,1.35,-0.04,0.21,-141.36,125.0,-4.15
2132,2132,1.34,-0.01,0.23,-150.7,125.0,-4.15
2133,2133,1.32,0.0,0.25,-161.19,125.0,-4.15
2134,2134,1.26,-0.01,0.28,-169.01,125.0,-4.15
2135,2135,1.22,-0.02,0.28,-173.4,109.38,-4.15
2136,2136,1.18,-0.05,0.29,-175.66,109.38,-4.15
2137,2137,1.15,-0.06,0.29,-174.99,93.75,-4.15
2138,2138,1.14,-0.04,0.28,-172.36,78.12,-4.15
2139,2139,1.13,-0.03,0.29,-165.95,78.12,-4.15
2140,2140,1.11,-0.01,0.29,-158.81,62.5,-4.15
2141,2141,1.07,0.01,0.29,-150.33,62.5,-4.15
2142,2142,1.02,0.02,0.29,-140.56,62.5,-4.15
2143,2143,0.97,0.02,0.27,-128.6,46.88,-4.15
2144,2144,0.91,-0.01,0.27,-115.48,46.88,-4.15
2145,2145,0.85,-0.05,0.22,-95.52,31.25,-4.15
2146,2146,0.81,-0.07,0.19,-83.01,15.62,-4.15
2147,2147,0.79,-0.09,0.17,-65.06,15.62,-4.15
2148,2148,0.77,-0.11,0.14,-46.08,0.0,-4.15
2149,2149,0.75,-0.1,0.11,-28.14,-15.62,-4.15
2150,2150,0.73,-0.06,0.08,-7.81,-15.62,-4.15
2151,2151,0.72,-0.02,0.07,6.53,-31.25,-4.15
2152,2152,0.71,0.02,0.06,21.97,-31.25,-4.15
2153,2153,0.7,0.06,0.04,35.95,-46.88,-4.21
2154,2154,0.69,0.07,0.03,47.0,-46.88,-4.21
2155,2155,0.68,0.07,0.01,57.74,-46.88,-4.21
2156,2156,0.69,0.06,0.01,65.98,-62.5,-4.21
2157,2157,0.7,0.04,0.01,73.43,-62.5,-4.21
2158,2158,0.73,0.04,0.02,76.23,-78.12,-4.21
2159,2159,0.77,0.06,0.03,75.13,-78.12,-4.21
2160,2160,0.86,0.11,0.07,70.13,-93.75,-4.21
2161,2161,0.97,0.15,0.11,62.68,-93.75,-4.21
2162,2162,1.1,0.15,0.15,52.55,-109.38,-4.21
2163,2163,1.21,0.13,0.17,44.8,-109.38,-4.21
2164,2164,1.27,0.06,0.16,41.56,-109.38,-4.21
2165,2165,1.2,-0.06,0.13,43.64,-93.75,-4.21
2166,2166,1.04,-0.15,0.07,53.96,-78.12,-4.21
2167,2167,0.88,-0.18,0.0,69.03,-62.5,-4.21
2168,2168,0.71,-0.16,-0.09,85.63,-78.12,-4.21
2169,2169,0.6,-0.12,-0.13,96.98,-93.75,-4.21
2170,2170,0.57,-0.06,-0.17,105.22,-109.38,-4.21
2171,2171,0.61,-0.04,-0.18,111.21,-140.62,-4.21
2172,2172,0.75,-0.03,-0.17,116.82,-156.25,-4.21
2173,2173,0.93,-0.03,-0.17,125.18,-171.88,-4.21
2174,2174,1.08,-0.06,-0.18,138.67,-187.5,-4.21
2175,2175,1.21,-0.08,-0.19,155.82,-187.5,-4.21
2176,2176,1.33,-0.14,-0.2,201.97,-187.5,-4.21
2177,2177,1.27,-0.17,-0.21,237.55,-171.88,-4.21
2178,2178,1.23,-0.17,-0.2,255.49,-171.88,-4.21
2179,2179,1.17,-0.17,-0.19,273.74,-171.88,-4.21
2180,2180,1.13,-0.17,-0.17,286.01,-187.5,-4.21
2181,2181,1.1,-0.15,-0.14,295.35,-187.5,-4.21
2182,2182,1.11,-0.12,-0.11,301.7,-187.5,-4.21
2183,2183,1.14,-0.08,-0.1,303.34,-203.12,-4.21
2184,2184,1.21,-0.03,-0.1,299.93,-203.12,-4.21
2185,2185,1.26,-0.02,-0.13,296.69,-203.12,-4.27
2186,2186,1.35,-0.0,-0.21,292.54,-218.75,-4.27
2187,2187,1.41,0.02,-0.27,291.63,-203.12,-4.27
2188,2188,1.5,0.07,-0.38,279.36,-203.12,-4.27
2189,2189,1.51,0.09,-0.42,269.04,-203.12,-4.27
2190,2190,1.51,0.11,-0.46,255.49,-187.5,-4.27
2191,2191,1.49,0.1,-0.5,238.28,-187.5,-4.27
2192,2192,1.47,0.08,-0.52,226.26,-187.5,-4.27
2193,2193,1.46,0.07,-0.54,219.48,-187.5,-4.27
2194,2194,1.46,0.05,-0.56,211.0,-187.5,-4.27
2195,2195,1.46,0.02,-0.59,196.17,-171.88,-4.27
2196,2196,1.47,-0.01,-0.61,182.68,-171.88,-4.27
2197,2197,1.49,-0.03,-0.64,165.65,-156.25,-4.27
2198,2198,1.48,-0.04,-0.68,148.01,-156.25,-4.27
2199,2199,1.43,-0.05,-0.69,132.08,-140.62,-4.27
2200,2200,1.37,-0.1,-0.62,127.44,-125.0,-4.27
2201,2201,1.3,-0.07,-0.8,104.43,-109.38,-4.27
2202,2202,1.38,0.87,-0.9,-48.16,-125.0,-4.27
2203,2203,1.34,0.72,-0.89,-41.08,-93.75,-4.27
2204,2204,1.21,0.08,-0.8,-42.48,-78.12,-4.27
2205,2205,1.21,-0.16,-0.72,-29.97,-46.88,-4.27
2206,2206,1.14,-0.14,-0.66,-10.8,-31.25,-4.27
2207,2207,1.06,-0.01,-0.65,-4.09,-31.25,-4.27
2208,2208,1.02,0.03,-0.58,-5.68,-15.62,-4.27
2209,2209,1.02,-0.04,-0.54,-7.26,-15.62,-4.27
2210,2210,1.04,-0.19,-0.48,-6.23,0.0,-4.27
2211,2211,1.07,-0.3,-0.43,4.7,15.62,-4.27
2212,2212,1.08,-0.4,-0.37,22.4,31.25,-4.27
2213,2213,1.07,-0.48,-0.29,45.78,46.88,-4.27
2214,2214,1.04,-0.51,-0.22,68.48,62.5,-4.27
2215,2215,1.03,-0.49,-0.2,84.41,78.12,-4.27
2216,2216,1.02,-0.43,-0.18,87.71,93.75,-4.27
2217,2217,1.02,-0.34,-0.16,81.48,109.38,-4.27
2218,2218,1.0,-0.32,-0.16,73.18,109.38,-4.33
2219,2219,1.0,-0.38,-0.18,67.81,125.0,-4.33
2220,2220,0.97,-0.56,-0.23,85.08,125.0,-4.33
2221,2221,0.97,-0.57,-0.25,101.99,125.0,-4.33
2222,2222,0.98,-0.55,-0.25,114.07,125.0,-4.33
2223,2223,0.98,-0.53,-0.23,121.09,109.38,-4.33
2224,2224,0.98,-0.52,-0.21,123.47,109.38,-4.33
2225,2225,0.99,-0.54,-0.16,122.74,109.38,-4.33
2226,2226,1.02,-0.58,-0.13,117.68,93.75,-4.33
2227,2227,1.06,-0.61,-0.08,110.23,93.75,-4.33
2228,2228,1.1,-0.66,-0.03,102.97,93.75,-4.33
2229,2229,1.13,-0.7,0.02,97.6,93.75,-4.33
2230,2230,1.15,-0.74,0.08,93.81,93.75,-4.33
2231,2231,1.15,-0.79,0.14,92.71,93.75,-4.33
2232,2232,1.15,-0.81,0.2,93.69,93.75,-4.33
2233,2233,1.14,-0.86,0.26,97.84,93.75,-4.33
2234,2234,1.18,-0.92,0.28,103.7,93.75,-4.33
2235,2235,1.39,-1.06,0.33,130.92,78.12,-4.33
2236,2236,1.51,-1.15,0.4,137.45,78.12,-4.33
2237,2237,1.55,-1.15,0.44,142.94,93.75,-4.33
2238,2238,1.5,-1.03,0.47,149.48,109.38,-4.33
2239,2239,1.38,-0.89,0.49,155.7,125.0,-4.33
2240,2240,1.22,-0.74,0.49,158.63,125.0,-4.33
2241,2241,1.1,-0.64,0.49,156.8,125.0,-4.33
2242,2242,1.05,-0.5,0.46,146.06,109.38,-4.33
2243,2243,1.08,-0.49,0.43,142.09,93.75,-4.33
2244,2244,1.11,-0.48,0.4,139.59,93.75,-4.33
2245,2245,1.14,-0.48,0.4,139.95,93.75,-4.33
2246,2246,1.16,-0.48,0.4,142.33,93.75,-4.33
2247,2247,1.21,-0.45,0.39,141.3,93.75,-4.33
2248,2248,1.29,-0.41,0.36,136.9,93.75,-4.33
2249,2249,1.36,-0.37,0.33,131.23,78.12,-4.39
2250,2250,1.46,-0.34,0.28,117.8,78.12,-4.39
2251,2251,1.59,-0.3,0.24,102.6,78.12,-4.39
2252,2252,1.68,-0.3,0.22,85.63,78.12,-4.39
2253,2253,1.76,-0.31,0.21,50.29,93.75,-4.39
2254,2254,1.72,-0.31,0.21,32.17,93.75,-4.39
2255,2255,1.65,-0.31,0.21,13.49,93.75,-4.39
2256,2256,1.55,-0.31,0.22,-5.37,93.75,-4.39
2257,2257,1.48,-0.3,0.21,-26.49,78.12,-4.39
2258,2258,1.41,-0.28,0.2,-45.72,78.12,-4.39
2259,2259,1.37,-0.26,0.2,-64.7,62.5,-4.39
2260,2260,1.33,-0.26,0.19,-81.12,62.5,-4.39
2261,2261,1.29,-0.26,0.18,-96.86,46.88,-4.39
2262,2262,1.25,-0.25,0.17,-109.19,31.25,-4.39
2263,2263,1.22,-0.25,0.17,-119.63,31.25,-4.39
2264,2264,1.13,-0.23,0.16,-130.49,15.62,-4.39
2265,2265,1.1,-0.22,0.16,-132.45,0.0,-4.39
2266,2266,1.06,-0.21,0.16,-130.98,0.0,-4.39
2267,2267,1.02,-0.21,0.16,-126.04,-15.62,-4.39
2268,2268,0.98,-0.21,0.16,-118.77,-15.62,-4.39
2269,2269,0.94,-0.22,0.17,-108.89,-15.62,-4.39
2270,2270,0.91,-0.21,0.18,-96.8,-31.25,-4.39
2271,2271,0.88,-0.21,0.2,-80.08,-31.25,-4.39
2272,2272,0.82,-0.22,0.22,-39.86,-31.25,-4.39
2273,2273,0.79,-0.22,0.23,-18.25,-31.25,-4.39
2274,2274,0.77,-0.23,0.24,3.6,-31.25,-4.39
2275,2275,0.77,-0.24,0.24,23.68,-31.25,-4.39
2276,2276,0.77,-0.25,0.22,41.81,-31.25,-4.39
2277,2277,0.79,-0.28,0.18,76.84,-31.25,-4.39
2278,2278,0.81,-0.3,0.17,94.79,-31.25,-4.39
2279,2279,0.83,-0.32,0.15,113.77,-31.25,-4.39
2280,2280,0.84,-0.33,0.14,135.44,-31.25,-4.46
2281,2281,0.86,-0.32,0.12,155.64,-31.25,-4.46
2282,2282,0.87,-0.29,0.1,174.68,-31.25,-4.46
2283,2283,0.86,-0.26,0.1,189.58,-31.25,-4.46
2284,2284,0.86,-0.23,0.09,201.23,-31.25,-4.46
2285,2285,0.86,-0.19,0.08,209.66,-31.25,-4.46
2286,2286,0.85,-0.15,0.07,214.9,-31.25,-4.46
2287,2287,0.84,-0.11,0.07,216.86,-31.25,-4.46
2288,2288,0.83,-0.08,0.07,216.0,-31.25,-4.46
2289,2289,0.82,-0.06,0.07,211.18,-31.25,-4.46
2290,2290,0.82,-0.05,0.06,205.69,-46.88,-4.46
2291,2291,0.84,-0.04,0.05,198.91,-46.88,-4.46
2292,2292,0.86,-0.04,0.04,189.94,-62.5,-4.46
2293,2293,0.9,-0.02,0.02,179.38,-62.5,-4.46
2294,2294,0.94,-0.01,0.02,167.48,-78.12,-4.46
2295,2295,0.97,-0.0,-0.0,155.82,-78.12,-4.46
2296,2296,0.99,0.0,-0.02,143.13,-78.12,-4.46
2297,2297,0.98,0.0,-0.06,117.55,-93.75,-4.46
2298,2298,0.98,0.0,-0.07,108.58,-93.75,-4.46
2299,2299,0.98,-0.01,-0.07,95.76,-109.38,-4.46
2300,2300,0.99,-0.01,-0.06,85.51,-109.38,-4.46
2301,2301,1.0,-0.04,-0.08,76.42,-109.38,-4.46
2302,2302,1.0,-0.09,-0.09,64.15,-125.0,-4.46
2303,2303,0.95,-0.14,-0.13,59.39,-125.0,-4.46
2304,2304,0.93,-0.16,-0.14,59.94,-125.0,-4.46
2305,2305,0.91,-0.18,-0.15,60.97,-140.62,-4.46
2306,2306,0.9,-0.21,-0.18,62.93,-140.62,-4.46
2307,2307,0.9,-0.22,-0.2,66.28,-140.62,-4.46
2308,2308,0.89,-0.24,-0.23,71.84,-140.62,-4.46
2309,2309,0.89,-0.24,-0.24,75.56,-156.25,-4.46
2310,2310,0.87,-0.25,-0.25,79.28,-156.25,-4.46
2311,2311,0.87,-0.23,-0.25,82.15,-156.25,-4.52
2312,2312,0.87,-0.23,-0.24,83.37,-156.25,-4.52
2313,2313,0.89,-0.2,-0.21,83.25,-156.25,-4.52
2314,2314,0.93,-0.18,-0.19,82.21,-171.88,-4.52
2315,2315,0.97,-0.15,-0.16,80.69,-171.88,-4.52
2316,2316,1.13,-0.1,-0.12,74.77,-171.88,-4.52
2317,2317,1.22,-0.1,-0.1,70.37,-187.5,-4.52
2318,2318,1.3,-0.1,-0.09,65.37,-171.88,-4.52
2319,2319,1.46,-0.13,-0.09,54.99,-171.88,-4.52
2320,2320,1.53,-0.15,-0.1,49.99,-171.88,-4.52
2321,2321,1.6,-0.18,-0.12,43.88,-156.25,-4.52
2322,2322,1.65,-0.21,-0.15,39.0,-156.25,-4.52
2323,2323,1.72,-0.28,-0.29,20.63,-140.62,-4.52
2324,2324,1.7,-0.29,-0.34,13.0,-140.62,-4.52
2325,2325,1.67,-0.29,-0.37,4.64,-125.0,-4.52
2326,2326,1.64,-0.28,-0.39,-6.29,-125.0,-4.52
2327,2327,1.59,-0.27,-0.4,-16.78,-125.0,-4.52
2328,2328,1.54,-0.26,-0.41,-30.03,-109.38,-4.52
2329,2329,1.48,-0.26,-0.43,-42.18,-109.38,-4.52
2330,2330,1.43,-0.26,-0.43,-54.32,-109.38,-4.52
2331,2331,1.35,-0.26,-0.44,-62.87,-93.75,-4.52
2332,2332,1.18,-0.28,-0.51,-76.48,-93.75,-4.52
2333,2333,1.15,-0.26,-0.53,-78.74,-93.75,-4.52
2334,2334,1.11,-0.23,-0.54,-80.93,-93.75,-4.52
2335,2335,1.09,-0.2,-0.54,-83.98,-78.12,-4.52
2336,2336,1.08,-0.18,-0.54,-89.66,-78.12,-4.52
2337,2337,1.07,-0.16,-0.53,-97.96,-78.12,-4.52
2338,2338,1.06,-0.16,-0.52,-104.68,-78.12,-4.52
2339,2339,1.05,-0.19,-0.5,-111.15,-62.5,-4.58
2340,2340,1.05,-0.22,-0.48,-114.87,-62.5,-4.58
2341,2341,1.04,-0.26,-0.47,-117.49,-46.88,-4.58
2342,2342,1.04,-0.28,-0.44,-119.38,-46.88,-4.58
2343,2343,1.02,-0.36,-0.38,-119.02,-31.25,-4.58
2344,2344,0.98,-0.45,-0.35,-113.65,-15.62,-4.58
2345,2345,0.95,-0.51,-0.35,-104.43,0.0,-4.58
2346,2346,0.94,-0.54,-0.36,-96.56,0.0,-4.58
2347,2347,0.93,-0.6,-0.38,-82.52,15.62,-4.58
2348,2348,0.92,-0.64,-0.38,-64.45,15.62,-4.58
2349,2349,0.92,-0.67,-0.38,-46.08,15.62,-4.58
2350,2350,0.92,-0.67,-0.39,-26.73,15.62,-4.58
2351,2351,0.91,-0.67,-0.38,-7.75,15.62,-4.58
2352,2352,0.91,-0.67,-0.36,13.55,15.62,-4.58
2353,2353,0.9,-0.67,-0.34,34.48,15.62,-4.58
2354,2354,0.91,-0.67,-0.33,58.04,15.62,-4.58
2355,2355,0.93,-0.65,-0.33,78.74,15.62,-4.58
2356,2356,0.95,-0.63,-0.35,99.18,15.62,-4.58
2357,2357,0.98,-0.61,-0.38,116.09,15.62,-4.58
2358,2358,1.01,-0.58,-0.41,127.62,31.25,-4.58
2359,2359,1.06,-0.54,-0.41,133.24,31.25,-4.58
2360,2360,1.09,-0.5,-0.37,136.6,31.25,-4.58
2361,2361,1.17,-0.5,-0.37,139.71,15.62,-4.58
2362,2362,1.27,-0.52,-0.39,140.56,15.62,-4.58
2363,2363,1.45,-0.56,-0.39,139.34,15.62,-4.58
2364,2364,1.61,-0.57,-0.36,135.56,31.25,-4.58
2365,2365,1.77,-0.57,-0.29,131.35,46.88,-4.58
2366,2366,1.83,-0.53,-0.14,118.9,109.38,-4.58
2367,2367,1.74,-0.51,-0.09,112.73,125.0,-4.58
2368,2368,1.6,-0.5,-0.02,107.54,140.62,-4.58
2369,2369,1.51,-0.48,0.01,103.7,156.25,-4.58
2370,2370,1.43,-0.46,0.03,101.75,156.25,-4.64
2371,2371,1.37,-0.43,0.06,101.2,171.88,-4.64
2372,2372,1.32,-0.44,0.08,113.22,171.88,-4.64
2373,2373,1.14,-0.61,-0.19,151.73,171.88,-4.64
2374,2374,1.26,-0.09,0.11,107.91,187.5,-4.64
2375,2375,1.13,-0.01,0.22,127.38,203.12,-4.64
2376,2376,1.02,-0.12,0.16,102.42,187.5,-4.64
2377,2377,0.97,-0.09,0.1,88.38,187.5,-4.64
2378,2378,1.0,-0.12,0.08,84.96,156.25,-4.64
2379,2379,1.13,-0.15,0.01,77.82,140.62,-4.64
2380,2380,1.29,-0.17,-0.02,71.84,140.62,-4.64
2381,2381,1.48,-0.21,-0.02,63.42,125.0,-4.64
2382,2382,1.71,-0.23,-0.02,52.49,125.0,-4.64
2383,2383,1.88,-0.24,0.0,42.72,140.62,-4.64
2384,2384,2.02,-0.25,0.04,32.84,156.25,-4.64
2385,2385,2.04,-0.25,0.06,24.35,171.88,-4.64
2386,2386,1.98,-0.23,0.09,16.97,171.88,-4.64
2387,2387,1.88,-0.22,0.09,10.38,171.88,-4.64
2388,2388,1.77,-0.19,0.11,-0.37,171.88,-4.64
2389,2389,1.7,-0.18,0.11,-11.35,156.25,-4.64
2390,2390,1.65,-0.16,0.12,-24.54,156.25,-4.64
2391,2391,1.6,-0.14,0.1,-38.94,140.62,-4.64
2392,2392,1.56,-0.13,0.11,-52.55,140.62,-4.64
2393,2393,1.49,-0.13,0.09,-67.38,140.62,-4.64
2394,2394,1.43,-0.13,0.09,-79.35,125.0,-4.64
2395,2395,1.36,-0.13,0.1,-90.76,109.38,-4.64
2396,2396,1.3,-0.12,0.11,-99.85,109.38,-4.64
2397,2397,1.12,-0.09,0.12,-117.98,93.75,-4.64
2398,2398,1.07,-0.06,0.11,-123.17,78.12,-4.64
2399,2399,0.95,-0.01,0.11,-133.24,62.5,-4.64
2400,2400,0.89,-0.01,0.11,-137.08,62.5,-4.64
2401,2401,0.81,-0.04,0.1,-138.61,62.5,-4.64
2402,2402,0.74,-0.08,0.08,-135.5,46.88,-4.7
2403,2403,0.67,-0.12,0.09,-129.7,31.25,-4.7
2404,2404,0.63,-0.16,0.1,-118.47,31.25,-4.7
2405,2405,0.62,-0.19,0.09,-106.14,15.62,-4.7
2406,2406,0.63,-0.21,0.07,-90.33,0.0,-4.7
2407,2407,0.67,-0.21,0.07,-74.34,0.0,-4.7
2408,2408,0.73,-0.2,0.06,-56.21,-15.62,-4.7
2409,2409,0.77,-0.18,0.06,-36.8,-15.62,-4.7
2410,2410,0.81,-0.15,0.07,-15.62,-15.62,-4.7
2411,2411,0.82,-0.13,0.07,4.94,-15.62,-4.7
2412,2412,0.83,-0.1,0.08,44.74,-15.62,-4.7
2413,2413,0.83,-0.1,0.07,61.4,-15.62,-4.7
2414,2414,0.83,-0.09,0.08,76.35,-15.62,-4.7
2415,2415,0.84,-0.09,0.07,88.13,-15.62,-4.7
2416,2416,0.85,-0.08,0.07,99.3,-15.62,-4.7
2417,2417,0.85,-0.08,0.07,107.79,-15.62,-4.7
2418,2418,0.85,-0.09,0.06,116.52,-15.62,-4.7
2419,2419,0.83,-0.09,0.07,123.96,-15.62,-4.7
2420,2420,0.81,-0.08,0.05,129.27,-15.62,-4.7
2421,2421,0.78,-0.06,0.03,131.41,-15.62,-4.7
2422,2422,0.74,-0.05,0.02,131.1,-15.62,-4.7
2423,2423,0.71,-0.04,0.01,127.62,-15.62,-4.7
2424,2424,0.7,-0.01,0.01,121.22,-31.25,-4.7
2425,2425,0.71,0.01,0.01,112.85,-31.25,-4.7
2426,2426,0.72,0.02,0.0,99.91,-46.88,-4.7
2427,2427,0.73,-0.0,-0.01,89.97,-46.88,-4.7
2428,2428,0.72,-0.02,-0.04,78.92,-46.88,-4.7
2429,2429,0.7,-0.02,-0.06,67.57,-46.88,-4.7
2430,2430,0.67,-0.02,-0.08,55.66,-46.88,-4.7
2431,2431,0.65,-0.0,-0.09,43.52,-62.5,-4.7
2432,2432,0.66,0.01,-0.09,30.64,-78.12,-4.7
2433,2433,0.7,0.01,-0.11,17.7,-93.75,-4.7
2434,2434,0.77,-0.02,-0.12,8.97,-109.38,-4.7
2435,2435,0.81,-0.05,-0.13,2.93,-109.38,-4.76
2436,2436,0.85,-0.08,-0.18,3.3,-109.38,-4.76
2437,2437,0.85,-0.11,-0.22,9.03,-125.0,-4.76
2438,2438,0.84,-0.14,-0.27,19.78,-125.0,-4.76
2439,2439,0.82,-0.16,-0.36,38.02,-140.62,-4.76
2440,2440,0.81,-0.18,-0.42,54.57,-140.62,-4.76
2441,2441,0.81,-0.23,-0.44,74.16,-156.25,-4.76
2442,2442,0.83,-0.31,-0.45,97.05,-156.25,-4.76
2443,2443,0.85,-0.37,-0.45,122.44,-171.88,-4.76
2444,2444,0.9,-0.41,-0.43,151.92,-171.88,-4.76
2445,2445,0.94,-0.41,-0.41,178.04,-187.5,-4.76
2446,2446,0.97,-0.37,-0.39,199.52,-187.5,-4.76
2447,2447,0.99,-0.33,-0.36,216.06,-203.12,-4.76
2448,2448,1.02,-0.25,-0.31,224.79,-203.12,-4.76
2449,2449,1.06,-0.19,-0.29,224.24,-218.75,-4.76
2450,2450,1.14,-0.1,-0.29,215.39,-218.75,-4.76
2451,2451,1.22,-0.03,-0.29,198.61,-234.38,-4.76
2452,2452,1.46,0.03,-0.31,151.12,-234.38,-4.76
2453,2453,1.57,0.01,-0.33,126.04,-234.38,-4.76
2454,2454,1.7,-0.03,-0.39,99.3,-234.38,-4.76
2455,2455,1.79,-0.07,-0.43,77.15,-234.38,-4.76
2456,2456,1.86,-0.1,-0.47,62.01,-218.75,-4.76
2457,2457,1.91,-0.13,-0.5,45.35,-203.12,-4.76
2458,2458,1.92,-0.16,-0.51,29.11,-187.5,-4.76
2459,2459,1.89,-0.18,-0.5,13.18,-171.88,-4.76
2460,2460,1.76,-0.2,-0.47,-16.24,-156.25,-4.76
2461,2461,1.72,-0.21,-0.46,-28.44,-140.62,-4.76
2462,2462,1.66,-0.23,-0.44,-38.45,-125.0,-4.76
2463,2463,1.61,-0.25,-0.43,-45.23,-125.0,-4.76
2464,2464,1.54,-0.29,-0.43,-48.1,-109.38,-4.76
2465,2465,1.47,-0.32,-0.43,-47.61,-93.75,-4.76
2466,2466,1.39,-0.35,-0.45,-43.09,-93.75,-4.76
2467,2467,1.31,-0.38,-0.46,-36.93,-78.12,-4.82
2468,2468,1.24,-0.4,-0.48,-27.59,-78.12,-4.82
2469,2469,1.18,-0.4,-0.51,-18.86,-78.12,-4.82
2470,2470,1.07,-0.38,-0.59,-0.12,-78.12,-4.82
2471,2471,1.04,-0.37,-0.6,5.92,-78.12,-4.82
2472,2472,1.02,-0.34,-0.62,10.62,-78.12,-4.82
2473,2473,1.01,-0.34,-0.63,12.94,-78.12,-4.82
2474,2474,1.01,-0.34,-0.65,15.44,-78.12,-4.82
2475,2475,1.01,-0.36,-0.67,16.6,-62.5,-4.82
2476,2476,1.03,-0.4,-0.68,19.9,-62.5,-4.82
2477,2477,1.04,-0.43,-0.7,23.5,-62.5,-4.82
2478,2478,1.06,-0.47,-0.73,28.93,-46.88,-4.82
2479,2479,1.09,-0.51,-0.73,35.58,-46.88,-4.82
2480,2480,1.09,-0.51,-0.71,39.43,-15.62,-4.82
2481,2481,1.08,-0.49,-0.66,43.4,0.0,-4.82
2482,2482,1.07,-0.48,-0.65,45.47,15.62,-4.82
2483,2483,1.07,-0.47,-0.62,49.5,15.62,-4.82
2484,2484,1.09,-0.48,-0.59,56.4,31.25,-4.82
2485,2485,1.14,-0.48,-0.58,65.06,31.25,-4.82
2486,2486,1.29,-0.42,-0.52,72.02,46.88,-4.82
2487,2487,1.33,-0.37,-0.42,68.85,78.12,-4.82
2488,2488,1.33,-0.35,-0.37,66.28,93.75,-4.82
2489,2489,1.31,-0.34,-0.33,63.72,109.38,-4.82
2490,2490,1.31,-0.33,-0.29,60.91,109.38,-4.82
2491,2491,1.31,-0.32,-0.25,58.65,125.0,-4.82
2492,2492,1.32,-0.31,-0.23,56.03,140.62,-4.82
2493,2493,1.32,-0.3,-0.21,52.31,140.62,-4.82
2494,2494,1.29,-0.27,-0.16,50.72,156.25,-4.88
2495,2495,1.28,-0.38,-0.18,72.33,156.25,-4.88
2496,2496,1.3,-0.43,-0.09,108.15,156.25,-4.88
2497,2497,1.29,-0.24,-0.04,169.31,156.25,-4.88
2498,2498,1.33,-0.24,0.03,231.38,156.25,-4.88
2499,2499,1.4,-0.14,-0.08,203.37,171.88,-4.88
2500,2500,1.52,0.34,-0.28,107.24,187.5,-4.88
2501,2501,1.52,0.26,-0.12,45.72,203.12,-4.88
2502,2502,1.47,-0.15,-0.08,0.67,187.5,-4.88
2503,2503,1.44,-0.27,-0.12,-25.7,187.5,-4.88
2504,2504,1.41,-0.27,-0.04,-30.76,187.5,-4.88
2505,2505,1.4,-0.18,-0.05,-39.37,203.12,-4.88
2506,2506,1.29,-0.04,0.01,-80.32,187.5,-4.88
2507,2507,1.24,-0.04,0.01,-98.88,187.5,-4.88
2508,2508,1.21,-0.08,-0.01,-114.44,171.88,-4.88
2509,2509,1.22,-0.12,-0.02,-127.99,156.25,-4.88
2510,2510,1.25,-0.14,-0.04,-139.53,140.62,-4.88
2511,2511,1.3,-0.16,-0.06,-147.09,125.0,-4.88
2512,2512,1.37,-0.17,-0.07,-151.25,125.0,-4.88
2513,2513,1.42,-0.18,-0.08,-152.4,109.38,-4.88
2514,2514,1.48,-0.2,-0.06,-151.12,109.38,-4.88
2515,2515,1.51,-0.21,-0.03,-148.32,93.75,-4.88
2516,2516,1.53,-0.21,0.0,-143.13,93.75,-4.88
2517,2517,1.54,-0.2,0.04,-136.72,78.12,-4.88
2518,2518,1.54,-0.17,0.08,-130.55,78.12,-4.88
2519,2519,1.53,-0.13,0.1,-123.72,78.12,-4.88
2520,2520,1.51,-0.1,0.13,-117.19,78.12,-4.88
2521,2521,1.44,-0.08,0.17,-110.66,78.12,-4.88
2522,2522,1.36,-0.08,0.19,-105.65,78.12,-4.88
2523,2523,1.26,-0.08,0.21,-100.95,78.12,-4.88
2524,2524,1.07,-0.1,0.23,-89.78,78.12,-4.88
2525,2525,1.0,-0.12,0.23,-83.37,62.5,-4.88
2526,2526,0.93,-0.14,0.21,-77.03,62.5,-4.88
2527,2527,0.88,-0.15,0.19,-67.2,62.5,-4.94
2528,2528,0.83,-0.15,0.16,-55.42,46.88,-4.94
2529,2529,0.8,-0.13,0.13,-41.2,46.88,-4.94
2530,2530,0.76,-0.11,0.1,-26.37,46.88,-4.94
2531,2531,0.74,-0.09,0.08,-11.23,31.25,-4.94
2532,2532,0.71,-0.07,0.06,3.23,31.25,-4.94
2533,2533,0.69,-0.06,0.04,17.27,31.25,-4.94
2534,2534,0.67,-0.05,0.02,30.76,15.62,-4.94
2535,2535,0.65,-0.04,0.01,42.79,15.62,-4.94
2536,2536,0.64,-0.04,0.0,53.04,15.62,-4.94
2537,2537,0.65,-0.04,0.0,60.55,0.0,-4.94
2538,2538,0.66,-0.06,-0.0,66.59,0.0,-4.94
2539,2539,0.68,-0.07,0.0,70.19,0.0,-4.94
2540,2540,0.7,-0.08,0.01,73.61,-15.62,-4.94
2541,2541,0.73,-0.08,0.01,75.07,-15.62,-4.94
2542,2542,0.75,-0.05,0.02,74.46,-15.62,-4.94
2543,2543,0.76,-0.03,0.02,72.45,-15.62,-4.94
2544,2544,0.76,-0.02,0.02,69.82,-15.62,-4.94
2545,2545,0.76,-0.01,0.02,64.58,-15.62,-4.94
2546,2546,0.76,-0.01,0.01,58.78,-31.25,-4.94
2547,2547,0.77,-0.02,0.01,52.61,-31.25,-4.94
2548,2548,0.77,-0.03,-0.0,46.57,-31.25,-4.94
2549,2549,0.76,-0.04,-0.01,41.2,-31.25,-4.94
2550,2550,0.75,-0.06,-0.04,29.54,-31.25,-4.94
2551,2551,0.73,-0.07,-0.06,23.74,-31.25,-4.94
2552,2552,0.72,-0.08,-0.07,20.2,-46.88,-4.94
2553,2553,0.72,-0.08,-0.08,15.56,-46.88,-4.94
2554,2554,0.74,-0.08,-0.07,9.58,-46.88,-4.94
2555,2555,0.78,-0.08,-0.07,3.85,-62.5,-4.94
2556,2556,0.83,-0.09,-0.06,-3.11,-62.5,-4.94
2557,2557,0.9,-0.13,-0.06,-12.76,-78.12,-4.94
2558,2558,0.9,-0.16,-0.08,-14.89,-78.12,-4.94
2559,2559,0.89,-0.18,-0.08,-15.14,-78.12,-5.0
2560,2560,0.86,-0.2,-0.13,-11.9,-78.12,-5.0
2561,2561,0.83,-0.22,-0.16,-6.29,-78.12,-5.0
2562,2562,0.83,-0.23,-0.21,9.09,-93.75,-5.0
2563,2563,0.85,-0.22,-0.21,17.09,-109.38,-5.0
2564,2564,0.89,-0.23,-0.22,26.18,-109.38,-5.0
2565,2565,0.94,-0.24,-0.22,37.35,-125.0,-5.0
2566,2566,0.98,-0.24,-0.23,48.34,-125.0,-5.0
2567,2567,1.03,-0.26,-0.24,60.85,-140.62,-5.0
2568,2568,1.09,-0.26,-0.25,74.04,-140.62,-5.0
2569,2569,1.14,-0.27,-0.25,87.83,-156.25,-5.0
2570,2570,1.22,-0.28,-0.26,102.72,-156.25,-5.0
2571,2571,1.29,-0.28,-0.26,116.82,-171.88,-5.0
2572,2572,1.37,-0.28,-0.26,131.65,-171.88,-5.0
2573,2573,1.43,-0.29,-0.27,145.02,-187.5,-5.0
2574,2574,1.51,-0.27,-0.33,155.52,-187.5,-5.0
2575,2575,1.61,-0.17,-0.4,144.53,-187.5,-5.0
2576,2576,1.58,-0.43,-0.29,199.22,-187.5,-5.0
2577,2577,1.59,-0.5,-0.38,202.76,-203.12,-5.0
2578,2578,1.72,-0.32,-0.38,215.33,-187.5,-5.0
2579,2579,1.74,-0.29,-0.4,226.81,-171.88,-5.0
2580,2580,1.7,-0.29,-0.4,221.92,-171.88,-5.0
2581,2581,1.64,-0.27,-0.38,213.2,-156.25,-5.0
2582,2582,1.57,-0.24,-0.36,201.48,-156.25,-5.0
2583,2583,1.44,-0.11,-0.33,161.56,-125.0,-5.0
2584,2584,1.39,-0.06,-0.33,136.41,-125.0,-5.0
2585,2585,1.35,-0.0,-0.32,109.07,-125.0,-5.0
2586,2586,1.31,0.04,-0.33,79.47,-109.38,-5.0
2587,2587,1.3,0.06,-0.34,52.31,-109.38,-5.0
2588,2588,1.29,0.08,-0.36,24.9,-109.38,-5.0
2589,2589,1.29,0.08,-0.38,0.43,-93.75,-5.0
2590,2590,1.3,0.08,-0.4,-23.07,-93.75,-5.0
2591,2591,1.31,0.07,-0.42,-44.43,-93.75,-5.07
2592,2592,1.31,0.05,-0.45,-63.48,-78.12,-5.07
2593,2593,1.31,0.01,-0.45,-79.35,-78.12,-5.07
2594,2594,1.3,-0.04,-0.46,-93.08,-62.5,-5.07
2595,2595,1.26,-0.09,-0.45,-103.88,-46.88,-5.07
2596,2596,1.21,-0.14,-0.45,-112.0,-46.88,-5.07
2597,2597,1.14,-0.2,-0.42,-116.88,-46.88,-5.07
2598,2598,1.11,-0.24,-0.41,-116.64,-31.25,-5.07
2599,2599,1.06,-0.29,-0.39,-114.01,-31.25,-5.07
2600,2600,1.03,-0.34,-0.39,-107.91,-31.25,-5.07
2601,2601,1.0,-0.39,-0.38,-98.02,-31.25,-5.07
2602,2602,0.98,-0.43,-0.38,-85.14,-31.25,-5.07
2603,2603,0.97,-0.45,-0.38,-68.66,-15.62,-5.07
2604,2604,0.95,-0.48,-0.38,-50.84,-15.62,-5.07
2605,2605,0.94,-0.49,-0.38,-31.8,-15.62,-5.07
2606,2606,0.92,-0.5,-0.39,-11.96,-15.62,-5.07
2607,2607,0.91,-0.5,-0.39,8.24,-15.62,-5.07
2608,2608,0.91,-0.5,-0.41,30.09,-15.62,-5.07
2609,2609,0.92,-0.5,-0.42,49.38,-15.62,-5.07
2610,2610,0.94,-0.5,-0.44,70.98,-15.62,-5.07
2611,2611,0.98,-0.5,-0.46,90.76,-15.62,-5.07
2612,2612,1.03,-0.49,-0.48,109.44,-15.62,-5.07
2613,2613,1.07,-0.47,-0.5,127.14,-15.62,-5.07
2614,2614,1.12,-0.44,-0.52,141.72,0.0,-5.07
2615,2615,1.16,-0.39,-0.52,150.7,0.0,-5.07
2616,2616,1.19,-0.32,-0.51,153.63,15.62,-5.07
2617,2617,1.2,-0.25,-0.49,149.9,15.62,-5.07
2618,2618,1.19,-0.19,-0.48,141.24,31.25,-5.07
2619,2619,1.18,-0.12,-0.45,126.34,46.88,-5.07
2620,2620,1.16,-0.06,-0.42,104.86,46.88,-5.07
2621,2621,1.15,-0.01,-0.39,83.31,62.5,-5.07
2622,2622,1.13,0.02,-0.35,61.16,62.5,-5.07
2623,2623,1.12,0.03,-0.34,37.05,78.12,-5.07
2624,2624,1.13,0.02,-0.33,15.44,78.12,-5.07
2625,2625,1.14,0.0,-0.31,-3.54,93.75,-5.13
2626,2626,1.16,-0.02,-0.31,-21.79,93.75,-5.13
2627,2627,1.16,-0.04,-0.3,-37.48,109.38,-5.13
2628,2628,1.16,-0.05,-0.28,-52.31,109.38,-5.13
2629,2629,1.15,-0.07,-0.25,-65.8,125.0,-5.13
2630,2630,1.15,-0.09,-0.22,-75.74,125.0,-5.13
2631,2631,1.2,-0.46,-0.04,-20.63,125.0,-5.13
2632,2632,1.24,-0.51,-0.12,27.04,125.0,-5.13
2633,2633,1.28,0.12,-0.12,29.97,140.62,-5.13
2634,2634,1.29,0.17,-0.04,52.8,156.25,-5.13
2635,2635,1.29,-0.03,-0.1,14.89,156.25,-5.13
2636,2636,1.38,0.09,-0.16,-50.35,140.62,-5.13
2637,2637,1.42,-0.13,-0.09,-59.39,140.62,-5.13
2638,2638,1.52,-0.43,-0.04,-64.03,140.62,-5.13
2639,2639,1.63,-0.43,-0.08,-55.36,156.25,-5.13
2640,2640,1.66,-0.35,-0.05,-41.87,171.88,-5.13
2641,2641,1.62,-0.19,-0.08,-39.25,187.5,-5.13
2642,2642,1.53,-0.06,-0.1,-49.01,187.5,-5.13
2643,2643,1.47,0.01,-0.12,-75.38,171.88,-5.13
2644,2644,1.46,0.02,-0.13,-91.74,171.88,-5.13
2645,2645,1.45,0.02,-0.11,-113.83,171.88,-5.13
2646,2646,1.46,0.0,-0.07,-130.13,171.88,-5.13
2647,2647,1.46,-0.03,-0.05,-141.3,156.25,-5.13
2648,2648,1.44,-0.05,-0.03,-148.8,156.25,-5.13
2649,2649,1.4,-0.05,-0.01,-153.08,156.25,-5.13
2650,2650,1.37,-0.05,0.01,-156.37,140.62,-5.13
2651,2651,1.34,-0.03,0.04,-161.38,140.62,-5.13
2652,2652,1.32,0.0,0.06,-166.81,125.0,-5.13
2653,2653,1.31,0.03,0.08,-173.1,125.0,-5.13
2654,2654,1.28,0.02,0.08,-177.37,109.38,-5.13
2655,2655,1.26,-0.0,0.09,-179.02,109.38,-5.13
2656,2656,1.23,-0.04,0.1,-178.83,93.75,-5.13
2657,2657,1.21,-0.06,0.12,-175.17,93.75,-5.13
2658,2658,1.18,-0.08,0.13,-169.56,78.12,-5.13
2659,2659,1.16,-0.11,0.13,-161.87,78.12,-5.19
2660,2660,1.13,-0.13,0.12,-152.95,62.5,-5.19
2661,2661,1.11,-0.15,0.09,-142.58,62.5,-5.19
2662,2662,1.11,-0.16,0.08,-128.54,62.5,-5.19
2663,2663,1.12,-0.17,0.07,-113.89,46.88,-5.19
2664,2664,1.13,-0.18,0.06,-98.63,46.88,-5.19
2665,2665,1.1,-0.19,0.06,-80.08,46.88,-5.19
2666,2666,1.07,-0.18,0.06,-61.58,46.88,-5.19
2667,2667,1.01,-0.16,0.07,-41.87,46.88,-5.19
2668,2668,0.95,-0.13,0.07,-22.46,46.88,-5.19
2669,2669,0.84,-0.02,0.08,8.24,46.88,-5.19
2670,2670,0.82,0.04,0.08,17.58,46.88,-5.19
2671,2671,0.8,0.09,0.08,23.74,46.88,-5.19
2672,2672,0.77,0.11,0.08,24.66,46.88,-5.19
2673,2673,0.76,0.12,0.08,22.09,46.88,-5.19
2674,2674,0.75,0.1,0.08,17.82,31.25,-5.19
2675,2675,0.73,0.08,0.07,13.37,31.25,-5.19
2676,2676,0.73,0.05,0.06,9.4,31.25,-5.19
2677,2677,0.73,0.03,0.06,4.58,31.25,-5.19
2678,2678,0.73,0.01,0.04,-0.43,31.25,-5.19
2679,2679,0.72,-0.0,0.04,-5.31,15.62,-5.19
2680,2680,0.71,-0.0,0.01,-9.83,15.62,-5.19
2681,2681,0.69,-0.0,0.01,-12.88,15.62,-5.19
2682,2682,0.68,0.0,0.0,-16.05,15.62,-5.19
2683,2683,0.66,-0.0,0.0,-18.86,15.62,-5.19
2684,2684,0.65,-0.01,0.0,-20.75,0.0,-5.19
2685,2685,0.67,-0.02,0.0,-21.55,0.0,-5.19
2686,2686,0.71,-0.03,-0.0,-21.67,-15.62,-5.19
2687,2687,0.77,-0.05,0.0,-20.02,-15.62,-5.19
2688,2688,0.83,-0.07,0.01,-17.33,-31.25,-5.19
2689,2689,0.88,-0.09,0.0,-13.37,-31.25,-5.19
2690,2690,0.91,-0.13,0.0,-8.3,-31.25,-5.19
2691,2691,0.92,-0.16,0.0,-1.22,-31.25,-5.19
2692,2692,0.9,-0.19,-0.01,5.62,-31.25,-5.25
2693,2693,0.87,-0.2,-0.03,13.98,-46.88,-5.25
2694,2694,0.85,-0.21,-0.05,23.38,-46.88,-5.25
2695,2695,0.84,-0.23,-0.06,32.65,-62.5,-5.25
2696,2696,0.85,-0.24,-0.08,44.86,-62.5,-5.25
2697,2697,0.86,-0.25,-0.09,56.15,-78.12,-5.25
2698,2698,0.88,-0.26,-0.11,68.3,-78.12,-5.25
2699,2699,0.91,-0.26,-0.14,81.67,-93.75,-5.25
2700,2700,0.94,-0.25,-0.14,93.75,-93.75,-5.25
2701,2701,0.97,-0.24,-0.16,106.99,-109.38,-5.25
2702,2702,1.0,-0.24,-0.18,116.76,-109.38,-5.25
2703,2703,1.04,-0.22,-0.18,126.53,-125.0,-5.25
2704,2704,1.08,-0.22,-0.18,135.07,-125.0,-5.25
2705,2705,1.13,-0.22,-0.18,141.36,-140.62,-5.25
2706,2706,1.17,-0.21,-0.18,146.3,-140.62,-5.25
2707,2707,1.23,-0.21,-0.16,149.54,-140.62,-5.25
2708,2708,1.27,-0.21,-0.15,151.0,-156.25,-5.25
2709,2709,1.33,-0.2,-0.16,148.74,-156.25,-5.25
2710,2710,1.38,-0.2,-0.17,144.53,-156.25,-5.25
2711,2711,1.42,-0.2,-0.18,138.61,-156.25,-5.25
2712,2712,1.49,-0.0,-0.47,101.14,-171.88,-5.25
2713,2713,1.48,-0.26,-0.17,136.35,-156.25,-5.25
2714,2714,1.46,-0.29,-0.26,116.39,-187.5,-5.25
2715,2715,1.64,-0.23,-0.25,111.88,-171.88,-5.25
2716,2716,1.69,-0.23,-0.28,108.46,-156.25,-5.25
2717,2717,1.67,-0.27,-0.29,98.57,-140.62,-5.25
2718,2718,1.65,-0.28,-0.3,91.37,-140.62,-5.25
2719,2719,1.61,-0.28,-0.3,84.35,-125.0,-5.25
2720,2720,1.58,-0.26,-0.3,76.11,-125.0,-5.25
2721,2721,1.53,-0.24,-0.3,66.1,-109.38,-5.25
